{"ApprovalTime": "2016-03-10T20:55:11Z", "SubmitTime": "2016-03-10T20:54:37Z", "AssignmentId": "3U088ZLJVKT3ZU0WCUD0OGFC8DK0WO", "HITId": "38G0E1M85M53D7EEUOHN21OJ7HQVU5", "answers": {"data": {"trials": [{"story": "cooking", "time": 19504, "name": "Sean", "rt": 14865, "blocknum": 0, "qtype": "probability", "response": 0.76, "trialnum": 1, "gender": "male", "qnum": 0}, {"story": "cooking", "time": 19504, "name": "Sean", "rt": 14865, "blocknum": 0, "qtype": "ungrammatical", "trialnum": 1, "gender": "male", "qnum": 0}, {"story": "cooking", "time": 36567, "name": "Joseph", "rt": 17047, "blocknum": 0, "qtype": "explanation", "response": "He failed to attend.", "trialnum": 2, "gender": "male", "qnum": 1}, {"story": "cooking", "time": 41085, "name": "Joseph", "rt": 4503, "blocknum": 0, "qtype": "probability", "response": 0.23, "trialnum": 3, "gender": "male", "qnum": 2}, {"story": "cooking", "time": 41085, "name": "Joseph", "rt": 4503, "blocknum": 0, "qtype": "ungrammatical", "trialnum": 3, "gender": "male", "qnum": 2}, {"story": "cooking", "time": 67784, "name": "Kelly", "rt": 26683, "blocknum": 0, "qtype": "probability", "response": 0.49, "trialnum": 4, "gender": "female", "qnum": 3}, {"story": "cooking", "time": 67784, "name": "Kelly", "rt": 26683, "blocknum": 0, "qtype": "ungrammatical", "response": true, "trialnum": 4, "gender": "female", "qnum": 3}, {"story": "cooking", "time": 73131, "name": "Logan", "rt": 5332, "blocknum": 0, "qtype": "probability", "response": 0.79, "trialnum": 5, "gender": "male", "qnum": 4}, {"story": "cooking", "time": 73131, "name": "Logan", "rt": 5332, "blocknum": 0, "qtype": "ungrammatical", "response": false, "trialnum": 5, "gender": "male", "qnum": 4}, {"story": "cooking", "time": 81949, "name": "Melissa", "rt": 8802, "blocknum": 0, "qtype": "probability", "response": 0.09, "trialnum": 6, "gender": "female", "qnum": 5}, {"story": "cooking", "time": 81949, "name": "Melissa", "rt": 8802, "blocknum": 0, "qtype": "ungrammatical", "response": false, "trialnum": 6, "gender": "female", "qnum": 5}, {"story": "reading", "time": 90295, "name": "Michael", "rt": 8331, "blocknum": 1, "qtype": "probability", "response": 0.48, "trialnum": 8, "gender": "male", "qnum": 0}, {"story": "reading", "time": 90295, "name": "Michael", "rt": 8331, "blocknum": 1, "qtype": "ungrammatical", "trialnum": 8, "gender": "male", "qnum": 0}, {"story": "reading", "time": 102562, "name": "Chelsea", "rt": 12252, "blocknum": 1, "qtype": "explanation", "response": "The material wasn't challenging", "trialnum": 9, "gender": "female", "qnum": 1}, {"story": "reading", "time": 109597, "name": "Chelsea", "rt": 7019, "blocknum": 1, "qtype": "probability", "response": 0.5, "trialnum": 10, "gender": "female", "qnum": 2}, {"story": "reading", "time": 109597, "name": "Chelsea", "rt": 7019, "blocknum": 1, "qtype": "ungrammatical", "trialnum": 10, "gender": "female", "qnum": 2}, {"story": "reading", "time": 120962, "name": "Jacob", "rt": 11365, "blocknum": 1, "qtype": "probability", "response": 0.48, "trialnum": 11, "gender": "male", "qnum": 3}, {"story": "reading", "time": 120962, "name": "Jacob", "rt": 11365, "blocknum": 1, "qtype": "ungrammatical", "response": false, "trialnum": 11, "gender": "male", "qnum": 3}, {"story": "reading", "time": 127780, "name": "Sarah", "rt": 6802, "blocknum": 1, "qtype": "probability", "response": 0.5, "trialnum": 12, "gender": "female", "qnum": 4}, {"story": "reading", "time": 127780, "name": "Sarah", "rt": 6802, "blocknum": 1, "qtype": "ungrammatical", "response": false, "trialnum": 12, "gender": "female", "qnum": 4}, {"story": "reading", "time": 133213, "name": "Jason", "rt": 5418, "blocknum": 1, "qtype": "probability", "response": 0.5, "trialnum": 13, "gender": "male", "qnum": 5}, {"story": "reading", "time": 133213, "name": "Jason", "rt": 5418, "blocknum": 1, "qtype": "ungrammatical", "response": false, "trialnum": 13, "gender": "male", "qnum": 5}, {"story": "insomnia", "time": 151662, "name": "Rachel", "rt": 18449, "blocknum": 2, "qtype": "probability", "response": 0.74, "trialnum": 15, "gender": "female", "qnum": 0}, {"story": "insomnia", "time": 151662, "name": "Rachel", "rt": 18449, "blocknum": 2, "qtype": "ungrammatical", "trialnum": 15, "gender": "female", "qnum": 0}, {"story": "insomnia", "time": 164332, "name": "Hannah", "rt": 12654, "blocknum": 2, "qtype": "explanation", "response": "She slept well.", "trialnum": 16, "gender": "female", "qnum": 1}, {"story": "insomnia", "time": 168799, "name": "Hannah", "rt": 4451, "blocknum": 2, "qtype": "probability", "response": 0.21, "trialnum": 17, "gender": "female", "qnum": 2}, {"story": "insomnia", "time": 168799, "name": "Hannah", "rt": 4451, "blocknum": 2, "qtype": "ungrammatical", "trialnum": 17, "gender": "female", "qnum": 2}, {"story": "insomnia", "time": 180013, "name": "Lindsey", "rt": 11198, "blocknum": 2, "qtype": "probability", "response": 0.51, "trialnum": 18, "gender": "female", "qnum": 3}, {"story": "insomnia", "time": 180013, "name": "Lindsey", "rt": 11198, "blocknum": 2, "qtype": "ungrammatical", "response": false, "trialnum": 18, "gender": "female", "qnum": 3}, {"story": "insomnia", "time": 185950, "name": "Paige", "rt": 5921, "blocknum": 2, "qtype": "probability", "response": 0.83, "trialnum": 19, "gender": "female", "qnum": 4}, {"story": "insomnia", "time": 185950, "name": "Paige", "rt": 5921, "blocknum": 2, "qtype": "ungrammatical", "response": false, "trialnum": 19, "gender": "female", "qnum": 4}, {"story": "insomnia", "time": 193931, "name": "Paul", "rt": 7966, "blocknum": 2, "qtype": "probability", "response": 0.1, "trialnum": 20, "gender": "male", "qnum": 5}, {"story": "insomnia", "time": 193931, "name": "Paul", "rt": 7966, "blocknum": 2, "qtype": "ungrammatical", "response": false, "trialnum": 20, "gender": "male", "qnum": 5}, {"story": "coffee", "time": 199076, "name": "John", "rt": 5130, "blocknum": 3, "qtype": "probability", "response": 0.78, "trialnum": 22, "gender": "male", "qnum": 0}, {"story": "coffee", "time": 199076, "name": "John", "rt": 5130, "blocknum": 3, "qtype": "ungrammatical", "trialnum": 22, "gender": "male", "qnum": 0}, {"story": "coffee", "time": 212240, "name": "Daniel", "rt": 13164, "blocknum": 3, "qtype": "explanation", "response": "he was too tired", "trialnum": 23, "gender": "male", "qnum": 1}, {"story": "coffee", "time": 216192, "name": "Daniel", "rt": 3952, "blocknum": 3, "qtype": "probability", "response": 0.78, "trialnum": 24, "gender": "male", "qnum": 2}, {"story": "coffee", "time": 216192, "name": "Daniel", "rt": 3952, "blocknum": 3, "qtype": "ungrammatical", "trialnum": 24, "gender": "male", "qnum": 2}, {"story": "coffee", "time": 222575, "name": "Andrew", "rt": 6352, "blocknum": 3, "qtype": "probability", "response": 0.76, "trialnum": 25, "gender": "male", "qnum": 3}, {"story": "coffee", "time": 222575, "name": "Andrew", "rt": 6352, "blocknum": 3, "qtype": "ungrammatical", "response": false, "trialnum": 25, "gender": "male", "qnum": 3}, {"story": "coffee", "time": 227676, "name": "Vanessa", "rt": 5085, "blocknum": 3, "qtype": "probability", "response": 0.18, "trialnum": 26, "gender": "female", "qnum": 4}, {"story": "coffee", "time": 227676, "name": "Vanessa", "rt": 5085, "blocknum": 3, "qtype": "ungrammatical", "response": false, "trialnum": 26, "gender": "female", "qnum": 4}, {"story": "coffee", "time": 234892, "name": "Jeff", "rt": 7201, "blocknum": 3, "qtype": "probability", "response": 0.87, "trialnum": 27, "gender": "male", "qnum": 5}, {"story": "coffee", "time": 234892, "name": "Jeff", "rt": 7201, "blocknum": 3, "qtype": "ungrammatical", "response": false, "trialnum": 27, "gender": "male", "qnum": 5}, {"story": "painting", "time": 244443, "name": "Abigail", "rt": 9551, "blocknum": 4, "qtype": "probability", "response": 0.79, "trialnum": 29, "gender": "female", "qnum": 0}, {"story": "painting", "time": 244443, "name": "Abigail", "rt": 9551, "blocknum": 4, "qtype": "ungrammatical", "trialnum": 29, "gender": "female", "qnum": 0}, {"story": "painting", "time": 257154, "name": "Stephanie", "rt": 12695, "blocknum": 4, "qtype": "explanation", "response": "she wore an apron", "trialnum": 30, "gender": "female", "qnum": 1}, {"story": "painting", "time": 259941, "name": "Stephanie", "rt": 2772, "blocknum": 4, "qtype": "probability", "response": 0.78, "trialnum": 31, "gender": "female", "qnum": 2}, {"story": "painting", "time": 259941, "name": "Stephanie", "rt": 2772, "blocknum": 4, "qtype": "ungrammatical", "trialnum": 31, "gender": "female", "qnum": 2}, {"story": "painting", "time": 264724, "name": "Alexander", "rt": 4783, "blocknum": 4, "qtype": "probability", "response": 0.81, "trialnum": 32, "gender": "male", "qnum": 3}, {"story": "painting", "time": 264724, "name": "Alexander", "rt": 4783, "blocknum": 4, "qtype": "ungrammatical", "response": false, "trialnum": 32, "gender": "male", "qnum": 3}, {"story": "painting", "time": 269648, "name": "Bradley", "rt": 4924, "blocknum": 4, "qtype": "probability", "response": 0.79, "trialnum": 33, "gender": "male", "qnum": 4}, {"story": "painting", "time": 269648, "name": "Bradley", "rt": 4924, "blocknum": 4, "qtype": "ungrammatical", "response": false, "trialnum": 33, "gender": "male", "qnum": 4}, {"story": "painting", "time": 275828, "name": "Nicole", "rt": 6180, "blocknum": 4, "qtype": "probability", "response": 0.81, "trialnum": 34, "gender": "female", "qnum": 5}, {"story": "painting", "time": 275828, "name": "Nicole", "rt": 6180, "blocknum": 4, "qtype": "ungrammatical", "response": false, "trialnum": 34, "gender": "female", "qnum": 5}, {"story": "Japan", "time": 285821, "name": "Natalie", "rt": 9989, "blocknum": 5, "qtype": "probability", "response": 0.79, "trialnum": 36, "gender": "female", "qnum": 0}, {"story": "Japan", "time": 285821, "name": "Natalie", "rt": 9989, "blocknum": 5, "qtype": "ungrammatical", "trialnum": 36, "gender": "female", "qnum": 0}, {"story": "Japan", "time": 301055, "name": "Charles", "rt": 15234, "blocknum": 5, "qtype": "explanation", "response": "he slept the whole way     ", "trialnum": 37, "gender": "male", "qnum": 1}, {"story": "Japan", "time": 307806, "name": "Charles", "rt": 6735, "blocknum": 5, "qtype": "probability", "response": 0.8, "trialnum": 38, "gender": "male", "qnum": 2}, {"story": "Japan", "time": 307806, "name": "Charles", "rt": 6735, "blocknum": 5, "qtype": "ungrammatical", "trialnum": 38, "gender": "male", "qnum": 2}, {"story": "Japan", "time": 315289, "name": "Victoria", "rt": 7483, "blocknum": 5, "qtype": "probability", "response": 0.79, "trialnum": 39, "gender": "female", "qnum": 3}, {"story": "Japan", "time": 315289, "name": "Victoria", "rt": 7483, "blocknum": 5, "qtype": "ungrammatical", "response": false, "trialnum": 39, "gender": "female", "qnum": 3}, {"story": "Japan", "time": 321641, "name": "Anna", "rt": 6352, "blocknum": 5, "qtype": "probability", "response": 0.85, "trialnum": 40, "gender": "female", "qnum": 4}, {"story": "Japan", "time": 321641, "name": "Anna", "rt": 6352, "blocknum": 5, "qtype": "ungrammatical", "response": false, "trialnum": 40, "gender": "female", "qnum": 4}, {"story": "Japan", "time": 329439, "name": "Destiny", "rt": 7798, "blocknum": 5, "qtype": "probability", "response": 0.14, "trialnum": 41, "gender": "female", "qnum": 5}, {"story": "Japan", "time": 329439, "name": "Destiny", "rt": 7798, "blocknum": 5, "qtype": "ungrammatical", "response": false, "trialnum": 41, "gender": "female", "qnum": 5}, {"story": "guitar", "time": 338323, "name": "Jared", "rt": 8868, "blocknum": 6, "qtype": "probability", "response": 0.84, "trialnum": 43, "gender": "male", "qnum": 0}, {"story": "guitar", "time": 338323, "name": "Jared", "rt": 8868, "blocknum": 6, "qtype": "ungrammatical", "trialnum": 43, "gender": "male", "qnum": 0}, {"story": "guitar", "time": 357988, "name": "Dylan", "rt": 19665, "blocknum": 6, "qtype": "explanation", "response": "he wore gloves", "trialnum": 44, "gender": "male", "qnum": 1}, {"story": "guitar", "time": 360870, "name": "Dylan", "rt": 2867, "blocknum": 6, "qtype": "probability", "response": 0.79, "trialnum": 45, "gender": "male", "qnum": 2}, {"story": "guitar", "time": 360870, "name": "Dylan", "rt": 2867, "blocknum": 6, "qtype": "ungrammatical", "trialnum": 45, "gender": "male", "qnum": 2}, {"story": "guitar", "time": 367472, "name": "Kevin", "rt": 6602, "blocknum": 6, "qtype": "probability", "response": 0.84, "trialnum": 46, "gender": "male", "qnum": 3}, {"story": "guitar", "time": 367472, "name": "Kevin", "rt": 6602, "blocknum": 6, "qtype": "ungrammatical", "response": false, "trialnum": 46, "gender": "male", "qnum": 3}, {"story": "guitar", "time": 372524, "name": "Brian", "rt": 5052, "blocknum": 6, "qtype": "probability", "response": 0.87, "trialnum": 47, "gender": "male", "qnum": 4}, {"story": "guitar", "time": 372524, "name": "Brian", "rt": 5052, "blocknum": 6, "qtype": "ungrammatical", "response": false, "trialnum": 47, "gender": "male", "qnum": 4}, {"story": "guitar", "time": 375606, "name": "Anthony", "rt": 3066, "blocknum": 6, "qtype": "probability", "response": 0.83, "trialnum": 48, "gender": "male", "qnum": 5}, {"story": "guitar", "time": 375606, "name": "Anthony", "rt": 3066, "blocknum": 6, "qtype": "ungrammatical", "response": false, "trialnum": 48, "gender": "male", "qnum": 5}, {"story": "fitness", "time": 381659, "name": "Lauren", "rt": 6037, "blocknum": 7, "qtype": "probability", "response": 0.83, "trialnum": 50, "gender": "female", "qnum": 0}, {"story": "fitness", "time": 381659, "name": "Lauren", "rt": 6037, "blocknum": 7, "qtype": "ungrammatical", "trialnum": 50, "gender": "female", "qnum": 0}, {"story": "fitness", "time": 395554, "name": "Trevor", "rt": 13895, "blocknum": 7, "qtype": "explanation", "response": "he ate way too much     ", "trialnum": 51, "gender": "male", "qnum": 1}, {"story": "fitness", "time": 399653, "name": "Trevor", "rt": 4099, "blocknum": 7, "qtype": "probability", "response": 0.83, "trialnum": 52, "gender": "male", "qnum": 2}, {"story": "fitness", "time": 399653, "name": "Trevor", "rt": 4099, "blocknum": 7, "qtype": "ungrammatical", "trialnum": 52, "gender": "male", "qnum": 2}, {"story": "fitness", "time": 404089, "name": "Joshua", "rt": 4420, "blocknum": 7, "qtype": "probability", "response": 0.79, "trialnum": 53, "gender": "male", "qnum": 3}, {"story": "fitness", "time": 404089, "name": "Joshua", "rt": 4420, "blocknum": 7, "qtype": "ungrammatical", "response": false, "trialnum": 53, "gender": "male", "qnum": 3}, {"story": "fitness", "time": 408206, "name": "Alexis", "rt": 4102, "blocknum": 7, "qtype": "probability", "response": 0.83, "trialnum": 54, "gender": "female", "qnum": 4}, {"story": "fitness", "time": 408206, "name": "Alexis", "rt": 4102, "blocknum": 7, "qtype": "ungrammatical", "response": false, "trialnum": 54, "gender": "female", "qnum": 4}, {"story": "fitness", "time": 412939, "name": "Megan", "rt": 4718, "blocknum": 7, "qtype": "probability", "response": 0.84, "trialnum": 55, "gender": "female", "qnum": 5}, {"story": "fitness", "time": 412939, "name": "Megan", "rt": 4718, "blocknum": 7, "qtype": "ungrammatical", "response": false, "trialnum": 55, "gender": "female", "qnum": 5}, {"story": "beach", "time": 419287, "name": "Carlos", "rt": 6332, "blocknum": 8, "qtype": "probability", "response": 0.83, "trialnum": 57, "gender": "male", "qnum": 0}, {"story": "beach", "time": 419287, "name": "Carlos", "rt": 6332, "blocknum": 8, "qtype": "ungrammatical", "trialnum": 57, "gender": "male", "qnum": 0}, {"story": "beach", "time": 429433, "name": "Amber", "rt": 10146, "blocknum": 8, "qtype": "explanation", "response": "there was no surf", "trialnum": 58, "gender": "female", "qnum": 1}, {"story": "beach", "time": 434354, "name": "Amber", "rt": 4909, "blocknum": 8, "qtype": "probability", "response": 0.83, "trialnum": 59, "gender": "female", "qnum": 2}, {"story": "beach", "time": 434354, "name": "Amber", "rt": 4909, "blocknum": 8, "qtype": "ungrammatical", "trialnum": 59, "gender": "female", "qnum": 2}, {"story": "beach", "time": 438495, "name": "Brandon", "rt": 4141, "blocknum": 8, "qtype": "probability", "response": 0.79, "trialnum": 60, "gender": "male", "qnum": 3}, {"story": "beach", "time": 438495, "name": "Brandon", "rt": 4141, "blocknum": 8, "qtype": "ungrammatical", "response": false, "trialnum": 60, "gender": "male", "qnum": 3}, {"story": "beach", "time": 444268, "name": "Kenneth", "rt": 5758, "blocknum": 8, "qtype": "probability", "response": 0.83, "trialnum": 61, "gender": "male", "qnum": 4}, {"story": "beach", "time": 444268, "name": "Kenneth", "rt": 5758, "blocknum": 8, "qtype": "ungrammatical", "response": false, "trialnum": 61, "gender": "male", "qnum": 4}, {"story": "beach", "time": 448750, "name": "Jasmine", "rt": 4482, "blocknum": 8, "qtype": "probability", "response": 0.84, "trialnum": 62, "gender": "female", "qnum": 5}, {"story": "beach", "time": 448750, "name": "Jasmine", "rt": 4482, "blocknum": 8, "qtype": "ungrammatical", "response": false, "trialnum": 62, "gender": "female", "qnum": 5}], "events": [{"type": "position", "time": 57, "x": 0, "y": 0}, {"type": "position", "time": 107, "x": 0, "y": 0}, {"type": "position", "time": 157, "x": 0, "y": 0}, {"type": "position", "time": 222, "x": 0, "y": 0}, {"type": "position", "time": 253, "x": 0, "y": 0}, {"type": "position", "time": 300, "x": 0, "y": 0}, {"type": "position", "time": 357, "x": 0, "y": 0}, {"type": "position", "time": 407, "x": null, "y": 0.023333333333333334}, {"type": "position", "time": 457, "x": null, "y": 0.07833333333333334}, {"type": "position", "time": 507, "x": null, "y": 0.07833333333333334}, {"type": "position", "time": 571, "x": null, "y": 0.07833333333333334}, {"type": "position", "time": 618, "x": null, "y": 0.07833333333333334}, {"type": "position", "time": 649, "x": null, "y": 0.065}, {"type": "position", "time": 712, "x": null, "y": 0.005}, {"type": "position", "time": 758, "x": null, "y": 0.005}, {"type": "position", "time": 821, "x": null, "y": 0.005}, {"type": "position", "time": 868, "x": null, "y": 0.005}, {"type": "position", "time": 914, "x": null, "y": 0.005}, {"type": "position", "time": 961, "x": null, "y": 0.005}, {"type": "position", "time": 1008, "x": null, "y": 0.005}, {"type": "position", "time": 1058, "x": null, "y": 0.005}, {"type": "position", "time": 1120, "x": null, "y": 0.005}, {"type": "position", "time": 1167, "x": null, "y": 0.005}, {"type": "position", "time": 1198, "x": null, "y": 0.005}, {"type": "position", "time": 1245, "x": null, "y": 0.005}, {"type": "position", "time": 1307, "x": null, "y": 0.005}, {"type": "position", "time": 1354, "x": null, "y": 0.005}, {"type": "position", "time": 1416, "x": null, "y": 0.005}, {"type": "position", "time": 1470, "x": null, "y": 0.005}, {"type": "position", "time": 1517, "x": null, "y": 0.005}, {"type": "position", "time": 1564, "x": null, "y": 0.005}, {"type": "position", "time": 1610, "x": null, "y": 0.005}, {"type": "position", "time": 1657, "x": null, "y": 0.005}, {"type": "position", "time": 1706, "x": null, "y": 0.005}, {"type": "position", "time": 1753, "x": null, "y": 0.005}, {"type": "position", "time": 1800, "x": null, "y": 0.005}, {"type": "position", "time": 1857, "x": null, "y": 0.005}, {"type": "position", "time": 1907, "x": null, "y": 0.005}, {"type": "position", "time": 1957, "x": null, "y": 0.005}, {"type": "position", "time": 2007, "x": null, "y": 0.005}, {"type": "position", "time": 2057, "x": null, "y": 0.005}, {"type": "position", "time": 2109, "x": null, "y": 0.005}, {"type": "position", "time": 2156, "x": null, "y": 0.005}, {"type": "position", "time": 2219, "x": null, "y": 0.005}, {"type": "position", "time": 2265, "x": null, "y": 0.005}, {"type": "position", "time": 2312, "x": null, "y": 0.005}, {"type": "position", "time": 2359, "x": null, "y": 0.005}, {"type": "position", "time": 2421, "x": null, "y": 0.005}, {"type": "position", "time": 2468, "x": null, "y": 0.005}, {"type": "position", "time": 2499, "x": null, "y": 0.005}, {"type": "position", "time": 2557, "x": null, "y": 0.005}, {"type": "position", "time": 2607, "x": null, "y": 0.005}, {"type": "position", "time": 2657, "x": null, "y": 0.005}, {"type": "position", "time": 2721, "x": null, "y": 0.005}, {"type": "position", "time": 2768, "x": null, "y": 0.005}, {"type": "position", "time": 2815, "x": null, "y": 0.005}, {"type": "position", "time": 2862, "x": null, "y": 0.005}, {"type": "position", "time": 2909, "x": null, "y": 0.005}, {"type": "position", "time": 2971, "x": null, "y": 0.005}, {"type": "position", "time": 3018, "x": null, "y": 0.005}, {"type": "position", "time": 3065, "x": null, "y": 0.005}, {"type": "position", "time": 3121, "x": null, "y": 0.005}, {"type": "position", "time": 3168, "x": null, "y": 0.005}, {"type": "position", "time": 3214, "x": null, "y": 0.005}, {"type": "position", "time": 3261, "x": null, "y": 0.005}, {"type": "position", "time": 3308, "x": null, "y": 0.76}, {"type": "position", "time": 3356, "x": null, "y": 0.7483333333333333}, {"type": "position", "time": 3402, "x": null, "y": 0.73}, {"type": "position", "time": 3449, "x": null, "y": 0.7233333333333334}, {"type": "position", "time": 3512, "x": null, "y": 0.7233333333333334}, {"type": "position", "time": 3558, "x": null, "y": 0.7233333333333334}, {"type": "position", "time": 3621, "x": null, "y": 0.7233333333333334}, {"type": "position", "time": 3668, "x": null, "y": 0.7233333333333334}, {"type": "position", "time": 3714, "x": null, "y": 0.7233333333333334}, {"type": "position", "time": 3762, "x": null, "y": 0.7233333333333334}, {"type": "position", "time": 3809, "x": null, "y": 0.7216666666666667}, {"type": "position", "time": 3856, "x": null, "y": 0.685}, {"type": "position", "time": 3903, "x": null, "y": 0.5816666666666667}, {"type": "position", "time": 3949, "x": null, "y": 0.5416666666666666}, {"type": "position", "time": 4012, "x": null, "y": 0.5333333333333333}, {"type": "position", "time": 4059, "x": null, "y": 0.5233333333333333}, {"type": "position", "time": 4109, "x": null, "y": 0.51}, {"type": "position", "time": 4156, "x": null, "y": 0.49666666666666665}, {"type": "position", "time": 4202, "x": null, "y": 0.49}, {"type": "position", "time": 4265, "x": null, "y": 0.4866666666666667}, {"type": "position", "time": 4312, "x": null, "y": 0.4866666666666667}, {"type": "position", "time": 4358, "x": null, "y": 0.4866666666666667}, {"type": "position", "time": 4405, "x": null, "y": 0.48333333333333334}, {"type": "position", "time": 4468, "x": null, "y": 0.48333333333333334}, {"type": "position", "time": 4499, "x": null, "y": 0.4816666666666667}, {"type": "position", "time": 4572, "x": null, "y": 0.4816666666666667}, {"type": "click", "time": 4639, "x": null, "y": 0.4816666666666667}, {"type": "position", "time": 4651, "x": null, "y": 0.4816666666666667}, {"type": "position", "time": 4657, "x": null, "y": 0.4816666666666667}, {"type": "position", "time": 4707, "x": null, "y": 0.4816666666666667}, {"type": "position", "time": 4757, "x": null, "y": 0.4816666666666667}, {"type": "position", "time": 4819, "x": null, "y": 0.4816666666666667}, {"type": "position", "time": 4866, "x": null, "y": 0.4816666666666667}, {"type": "position", "time": 4913, "x": null, "y": 0.4816666666666667}, {"type": "position", "time": 4960, "x": null, "y": 0.4816666666666667}, {"type": "position", "time": 5022, "x": null, "y": 0.4816666666666667}, {"type": "position", "time": 5069, "x": null, "y": 0.4816666666666667}, {"type": "position", "time": 5120, "x": null, "y": 0.4816666666666667}, {"type": "position", "time": 5167, "x": null, "y": 0.4816666666666667}, {"type": "position", "time": 5214, "x": null, "y": 0.4816666666666667}, {"type": "position", "time": 5261, "x": null, "y": 0.4816666666666667}, {"type": "position", "time": 5307, "x": null, "y": 0.4816666666666667}, {"type": "position", "time": 5370, "x": null, "y": 0.4816666666666667}, {"type": "position", "time": 5417, "x": null, "y": 0.4816666666666667}, {"type": "position", "time": 5463, "x": null, "y": 0.4816666666666667}, {"type": "position", "time": 5510, "x": null, "y": 0.4816666666666667}, {"type": "position", "time": 5573, "x": null, "y": 0.4816666666666667}, {"type": "position", "time": 5619, "x": null, "y": 0.4816666666666667}, {"type": "position", "time": 5666, "x": null, "y": 0.48}, {"type": "position", "time": 5710, "x": null, "y": 0.4866666666666667}, {"type": "position", "time": 5759, "x": null, "y": 0.535}, {"type": "position", "time": 5810, "x": null, "y": 0.5783333333333334}, {"type": "position", "time": 5860, "x": null, "y": 0.595}, {"type": "position", "time": 5912, "x": null, "y": 0.5983333333333334}, {"type": "position", "time": 5972, "x": null, "y": 0.5983333333333334}, {"type": "position", "time": 6019, "x": null, "y": 0.5983333333333334}, {"type": "position", "time": 6065, "x": null, "y": 0.5983333333333334}, {"type": "position", "time": 6120, "x": null, "y": 0.5983333333333334}, {"type": "position", "time": 6167, "x": null, "y": 0.5983333333333334}, {"type": "position", "time": 6214, "x": null, "y": 0.5983333333333334}, {"type": "position", "time": 6261, "x": null, "y": 0.5983333333333334}, {"type": "position", "time": 6309, "x": null, "y": 0.5983333333333334}, {"type": "position", "time": 6372, "x": null, "y": 0.5983333333333334}, {"type": "position", "time": 6419, "x": null, "y": 0.5983333333333334}, {"type": "position", "time": 6465, "x": null, "y": 0.5983333333333334}, {"type": "position", "time": 6512, "x": null, "y": 0.5983333333333334}, {"type": "position", "time": 6559, "x": null, "y": 0.5983333333333334}, {"type": "position", "time": 6621, "x": null, "y": 0.5983333333333334}, {"type": "position", "time": 6668, "x": null, "y": 0.5983333333333334}, {"type": "position", "time": 6715, "x": null, "y": 0.5983333333333334}, {"type": "position", "time": 6762, "x": null, "y": 0.5983333333333334}, {"type": "position", "time": 6809, "x": null, "y": 0.5983333333333334}, {"type": "position", "time": 6871, "x": null, "y": 0.5983333333333334}, {"type": "position", "time": 6918, "x": null, "y": 0.5983333333333334}, {"type": "position", "time": 6965, "x": null, "y": 0.5983333333333334}, {"type": "position", "time": 7011, "x": null, "y": 0.5983333333333334}, {"type": "position", "time": 7058, "x": null, "y": 0.5983333333333334}, {"type": "position", "time": 7107, "x": null, "y": 0.5983333333333334}, {"type": "position", "time": 7159, "x": null, "y": 0.5983333333333334}, {"type": "position", "time": 7221, "x": null, "y": 0.5983333333333334}, {"type": "position", "time": 7268, "x": null, "y": 0.5983333333333334}, {"type": "position", "time": 7315, "x": null, "y": 0.5983333333333334}, {"type": "position", "time": 7362, "x": null, "y": 0.5983333333333334}, {"type": "position", "time": 7408, "x": null, "y": 0.5983333333333334}, {"type": "position", "time": 7471, "x": null, "y": 0.5983333333333334}, {"type": "position", "time": 7518, "x": null, "y": 0.5983333333333334}, {"type": "position", "time": 7564, "x": null, "y": 0.5983333333333334}, {"type": "position", "time": 7611, "x": null, "y": 0.5983333333333334}, {"type": "position", "time": 7658, "x": null, "y": 0.5966666666666667}, {"type": "position", "time": 7708, "x": null, "y": 0.45}, {"type": "position", "time": 7758, "x": null, "y": 0.19833333333333333}, {"type": "position", "time": 7808, "x": null, "y": 0.15166666666666667}, {"type": "position", "time": 7858, "x": null, "y": 0.15}, {"type": "position", "time": 7919, "x": null, "y": 0.15}, {"type": "position", "time": 7966, "x": null, "y": 0.15}, {"type": "position", "time": 8013, "x": null, "y": 0.15}, {"type": "position", "time": 8060, "x": null, "y": 0.15}, {"type": "position", "time": 8107, "x": null, "y": 0.15166666666666667}, {"type": "position", "time": 8157, "x": null, "y": 0.15166666666666667}, {"type": "position", "time": 8207, "x": null, "y": 0.15166666666666667}, {"type": "position", "time": 8272, "x": null, "y": 0.15166666666666667}, {"type": "position", "time": 8319, "x": null, "y": 0.15166666666666667}, {"type": "position", "time": 8366, "x": null, "y": 0.15166666666666667}, {"type": "position", "time": 8413, "x": null, "y": 0.15166666666666667}, {"type": "position", "time": 8460, "x": null, "y": 0.15166666666666667}, {"type": "position", "time": 8522, "x": null, "y": 0.15166666666666667}, {"type": "position", "time": 8572, "x": null, "y": 0.15166666666666667}, {"type": "position", "time": 8619, "x": null, "y": 0.15166666666666667}, {"type": "position", "time": 8665, "x": null, "y": 0.15166666666666667}, {"type": "position", "time": 8712, "x": null, "y": 0.15166666666666667}, {"type": "position", "time": 8759, "x": null, "y": 0.15166666666666667}, {"type": "position", "time": 8821, "x": null, "y": 0.15166666666666667}, {"type": "position", "time": 8858, "x": null, "y": 0.15166666666666667}, {"type": "position", "time": 8908, "x": null, "y": 0.15166666666666667}, {"type": "position", "time": 8958, "x": null, "y": 0.15166666666666667}, {"type": "position", "time": 9008, "x": null, "y": 0.15166666666666667}, {"type": "position", "time": 9058, "x": null, "y": 0.15166666666666667}, {"type": "position", "time": 9107, "x": null, "y": 0.15166666666666667}, {"type": "position", "time": 9171, "x": null, "y": 0.15166666666666667}, {"type": "position", "time": 9218, "x": null, "y": 0.15166666666666667}, {"type": "position", "time": 9270, "x": null, "y": 0.15166666666666667}, {"type": "position", "time": 9317, "x": null, "y": 0.15166666666666667}, {"type": "position", "time": 9364, "x": null, "y": 0.15166666666666667}, {"type": "position", "time": 9395, "x": null, "y": 0.15166666666666667}, {"type": "position", "time": 9458, "x": null, "y": 0.15166666666666667}, {"type": "position", "time": 9508, "x": null, "y": 0.15166666666666667}, {"type": "position", "time": 9558, "x": null, "y": 0.15166666666666667}, {"type": "position", "time": 9608, "x": null, "y": 0.15166666666666667}, {"type": "position", "time": 9662, "x": null, "y": 0.15166666666666667}, {"type": "position", "time": 9708, "x": null, "y": 0.15166666666666667}, {"type": "position", "time": 9772, "x": null, "y": 0.15166666666666667}, {"type": "position", "time": 9818, "x": null, "y": 0.15166666666666667}, {"type": "position", "time": 9857, "x": null, "y": 0.15166666666666667}, {"type": "position", "time": 9907, "x": null, "y": 0.15166666666666667}, {"type": "position", "time": 9957, "x": null, "y": 0.15166666666666667}, {"type": "position", "time": 10008, "x": null, "y": 0.15166666666666667}, {"type": "position", "time": 10055, "x": null, "y": 0.15166666666666667}, {"type": "position", "time": 10109, "x": null, "y": 0.15166666666666667}, {"type": "position", "time": 10161, "x": null, "y": 0.15166666666666667}, {"type": "position", "time": 10207, "x": null, "y": 0.15166666666666667}, {"type": "position", "time": 10270, "x": null, "y": 0.15166666666666667}, {"type": "position", "time": 10317, "x": null, "y": 0.15166666666666667}, {"type": "position", "time": 10363, "x": null, "y": 0.15166666666666667}, {"type": "position", "time": 10410, "x": null, "y": 0.15166666666666667}, {"type": "position", "time": 10473, "x": null, "y": 0.15166666666666667}, {"type": "position", "time": 10519, "x": null, "y": 0.15166666666666667}, {"type": "position", "time": 10566, "x": null, "y": 0.15166666666666667}, {"type": "position", "time": 10613, "x": null, "y": 0.15166666666666667}, {"type": "position", "time": 10660, "x": null, "y": 0.15166666666666667}, {"type": "position", "time": 10709, "x": null, "y": 0.15166666666666667}, {"type": "position", "time": 10771, "x": null, "y": 0.15166666666666667}, {"type": "position", "time": 10821, "x": null, "y": 0.15166666666666667}, {"type": "position", "time": 10868, "x": null, "y": 0.15166666666666667}, {"type": "position", "time": 10914, "x": null, "y": 0.15166666666666667}, {"type": "position", "time": 10961, "x": null, "y": 0.15166666666666667}, {"type": "position", "time": 11008, "x": null, "y": 0.15166666666666667}, {"type": "position", "time": 11070, "x": null, "y": 0.15166666666666667}, {"type": "position", "time": 11108, "x": null, "y": 0.15166666666666667}, {"type": "position", "time": 11169, "x": null, "y": 0.15166666666666667}, {"type": "position", "time": 11216, "x": null, "y": 0.15166666666666667}, {"type": "position", "time": 11263, "x": null, "y": 0.15166666666666667}, {"type": "position", "time": 11310, "x": null, "y": 0.15166666666666667}, {"type": "position", "time": 11372, "x": null, "y": 0.15166666666666667}, {"type": "position", "time": 11419, "x": null, "y": 0.15166666666666667}, {"type": "position", "time": 11466, "x": null, "y": 0.15166666666666667}, {"type": "position", "time": 11513, "x": null, "y": 0.15166666666666667}, {"type": "position", "time": 11559, "x": null, "y": 0.15166666666666667}, {"type": "position", "time": 11622, "x": null, "y": 0.15166666666666667}, {"type": "position", "time": 11669, "x": null, "y": 0.15166666666666667}, {"type": "position", "time": 11715, "x": null, "y": 0.15166666666666667}, {"type": "position", "time": 11762, "x": null, "y": 0.15166666666666667}, {"type": "position", "time": 11809, "x": null, "y": 0.15166666666666667}, {"type": "position", "time": 11871, "x": null, "y": 0.15166666666666667}, {"type": "position", "time": 11903, "x": null, "y": 0.15166666666666667}, {"type": "position", "time": 11958, "x": null, "y": 0.15166666666666667}, {"type": "position", "time": 12008, "x": null, "y": 0.15166666666666667}, {"type": "position", "time": 12058, "x": null, "y": 0.15166666666666667}, {"type": "position", "time": 12108, "x": null, "y": 0.15166666666666667}, {"type": "position", "time": 12158, "x": null, "y": 0.15166666666666667}, {"type": "position", "time": 12208, "x": null, "y": 0.15166666666666667}, {"type": "position", "time": 12257, "x": null, "y": 0.15166666666666667}, {"type": "position", "time": 12308, "x": null, "y": 0.15166666666666667}, {"type": "position", "time": 12371, "x": null, "y": 0.15166666666666667}, {"type": "position", "time": 12408, "x": null, "y": 0.15166666666666667}, {"type": "position", "time": 12458, "x": null, "y": 0.15166666666666667}, {"type": "position", "time": 12504, "x": null, "y": 0.15166666666666667}, {"type": "position", "time": 12571, "x": null, "y": 0.15166666666666667}, {"type": "position", "time": 12618, "x": null, "y": 0.15166666666666667}, {"type": "position", "time": 12665, "x": null, "y": 0.15166666666666667}, {"type": "position", "time": 12712, "x": null, "y": 0.15166666666666667}, {"type": "position", "time": 12760, "x": null, "y": 0.15166666666666667}, {"type": "position", "time": 12822, "x": null, "y": 0.15166666666666667}, {"type": "position", "time": 12869, "x": null, "y": 0.15166666666666667}, {"type": "position", "time": 12916, "x": null, "y": 0.15166666666666667}, {"type": "position", "time": 12947, "x": null, "y": 0.15166666666666667}, {"type": "position", "time": 13007, "x": null, "y": 0.15166666666666667}, {"type": "position", "time": 13057, "x": null, "y": 0.15166666666666667}, {"type": "position", "time": 13106, "x": null, "y": 0.15166666666666667}, {"type": "position", "time": 13171, "x": null, "y": 0.15166666666666667}, {"type": "position", "time": 13217, "x": null, "y": 0.15166666666666667}, {"type": "position", "time": 13264, "x": null, "y": 0.15166666666666667}, {"type": "position", "time": 13312, "x": null, "y": 0.15166666666666667}, {"type": "position", "time": 13371, "x": null, "y": 0.15166666666666667}, {"type": "position", "time": 13419, "x": null, "y": 0.15166666666666667}, {"type": "position", "time": 13460, "x": null, "y": 0.15166666666666667}, {"type": "position", "time": 13522, "x": null, "y": 0.15166666666666667}, {"type": "position", "time": 13553, "x": null, "y": 0.15166666666666667}, {"type": "position", "time": 13605, "x": null, "y": 0.15166666666666667}, {"type": "position", "time": 13652, "x": null, "y": 0.15166666666666667}, {"type": "position", "time": 13714, "x": null, "y": 0.15166666666666667}, {"type": "position", "time": 13761, "x": null, "y": 0.15166666666666667}, {"type": "position", "time": 13808, "x": null, "y": 0.15166666666666667}, {"type": "position", "time": 13872, "x": null, "y": 0.15166666666666667}, {"type": "position", "time": 13919, "x": null, "y": 0.15166666666666667}, {"type": "position", "time": 13965, "x": null, "y": 0.15166666666666667}, {"type": "position", "time": 13997, "x": null, "y": 0.15166666666666667}, {"type": "position", "time": 14059, "x": null, "y": 0.15166666666666667}, {"type": "position", "time": 14108, "x": null, "y": 0.15166666666666667}, {"type": "position", "time": 14160, "x": null, "y": 0.15166666666666667}, {"type": "position", "time": 14222, "x": null, "y": 0.15166666666666667}, {"type": "position", "time": 14269, "x": null, "y": 0.15166666666666667}, {"type": "position", "time": 14316, "x": null, "y": 0.15166666666666667}, {"type": "position", "time": 14362, "x": null, "y": 0.15166666666666667}, {"type": "position", "time": 14409, "x": null, "y": 0.15166666666666667}, {"type": "position", "time": 14472, "x": null, "y": 0.15166666666666667}, {"type": "position", "time": 14518, "x": null, "y": 0.15166666666666667}, {"type": "position", "time": 14565, "x": null, "y": 0.15166666666666667}, {"type": "position", "time": 14612, "x": null, "y": 0.15166666666666667}, {"type": "position", "time": 14659, "x": null, "y": 0.15166666666666667}, {"type": "position", "time": 14721, "x": null, "y": 0.15166666666666667}, {"type": "position", "time": 14752, "x": null, "y": 0.15166666666666667}, {"type": "position", "time": 14808, "x": null, "y": 0.15166666666666667}, {"type": "position", "time": 14856, "x": null, "y": 0.15166666666666667}, {"type": "position", "time": 14902, "x": null, "y": 0.15166666666666667}, {"type": "position", "time": 14949, "x": null, "y": 0.15166666666666667}, {"type": "position", "time": 15012, "x": null, "y": 0.15166666666666667}, {"type": "position", "time": 15058, "x": null, "y": 0.15166666666666667}, {"type": "position", "time": 15107, "x": null, "y": 0.15166666666666667}, {"type": "position", "time": 15159, "x": null, "y": 0.15166666666666667}, {"type": "position", "time": 15221, "x": null, "y": 0.15166666666666667}, {"type": "position", "time": 15268, "x": null, "y": 0.15166666666666667}, {"type": "position", "time": 15315, "x": null, "y": 0.15166666666666667}, {"type": "position", "time": 15362, "x": null, "y": 0.15166666666666667}, {"type": "position", "time": 15409, "x": null, "y": 0.15166666666666667}, {"type": "position", "time": 15457, "x": null, "y": 0.15166666666666667}, {"type": "position", "time": 15504, "x": null, "y": 0.15166666666666667}, {"type": "position", "time": 15551, "x": null, "y": 0.15166666666666667}, {"type": "position", "time": 15608, "x": null, "y": 0.15166666666666667}, {"type": "position", "time": 15653, "x": null, "y": 0.15166666666666667}, {"type": "position", "time": 15700, "x": null, "y": 0.15166666666666667}, {"type": "position", "time": 15746, "x": null, "y": 0.15166666666666667}, {"type": "position", "time": 15809, "x": null, "y": 0.15166666666666667}, {"type": "position", "time": 15871, "x": null, "y": 0.15166666666666667}, {"type": "position", "time": 15918, "x": null, "y": 0.15166666666666667}, {"type": "position", "time": 15965, "x": null, "y": 0.15166666666666667}, {"type": "position", "time": 16012, "x": null, "y": 0.15166666666666667}, {"type": "position", "time": 16058, "x": null, "y": 0.15166666666666667}, {"type": "position", "time": 16121, "x": null, "y": 0.15166666666666667}, {"type": "position", "time": 16162, "x": null, "y": 0.15166666666666667}, {"type": "position", "time": 16209, "x": null, "y": 0.15166666666666667}, {"type": "position", "time": 16256, "x": null, "y": 0.15166666666666667}, {"type": "position", "time": 16303, "x": null, "y": 0.15166666666666667}, {"type": "position", "time": 16365, "x": null, "y": 0.15166666666666667}, {"type": "position", "time": 16412, "x": null, "y": 0.15166666666666667}, {"type": "position", "time": 16461, "x": null, "y": 0.15166666666666667}, {"type": "position", "time": 16508, "x": null, "y": 0.43}, {"type": "position", "time": 16570, "x": null, "y": 0.43}, {"type": "position", "time": 16601, "x": null, "y": 0.43}, {"type": "position", "time": 16658, "x": null, "y": 0.46}, {"type": "position", "time": 16708, "x": null, "y": 0.5433333333333333}, {"type": "position", "time": 16759, "x": null, "y": 0.5783333333333334}, {"type": "position", "time": 16808, "x": null, "y": 0.5816666666666667}, {"type": "position", "time": 16868, "x": null, "y": 0.5816666666666667}, {"type": "position", "time": 16915, "x": null, "y": 0.5816666666666667}, {"type": "position", "time": 16962, "x": null, "y": 0.5816666666666667}, {"type": "position", "time": 17009, "x": null, "y": 0.5816666666666667}, {"type": "position", "time": 17058, "x": null, "y": 0.5816666666666667}, {"type": "position", "time": 17111, "x": null, "y": 0.6}, {"type": "position", "time": 17158, "x": null, "y": 0.6}, {"type": "position", "time": 17208, "x": null, "y": 0.5966666666666667}, {"type": "position", "time": 17258, "x": null, "y": 0.59}, {"type": "position", "time": 17308, "x": null, "y": 0.58}, {"type": "position", "time": 17371, "x": null, "y": 0.58}, {"type": "position", "time": 17402, "x": null, "y": 0.58}, {"type": "position", "time": 17460, "x": null, "y": 0.5783333333333334}, {"type": "position", "time": 17508, "x": null, "y": 0.5766666666666667}, {"type": "position", "time": 17558, "x": null, "y": 0.575}, {"type": "position", "time": 17604, "x": null, "y": 0.5733333333333334}, {"type": "position", "time": 17658, "x": null, "y": 0.5716666666666667}, {"type": "position", "time": 17706, "x": null, "y": 0.5716666666666667}, {"type": "position", "time": 17758, "x": null, "y": 0.57}, {"type": "position", "time": 17820, "x": null, "y": 0.57}, {"type": "position", "time": 17867, "x": null, "y": 0.57}, {"type": "position", "time": 17914, "x": null, "y": 0.57}, {"type": "position", "time": 17961, "x": null, "y": 0.57}, {"type": "position", "time": 18007, "x": null, "y": 0.5683333333333334}, {"type": "position", "time": 18058, "x": null, "y": 0.5666666666666667}, {"type": "position", "time": 18113, "x": null, "y": 0.5616666666666666}, {"type": "position", "time": 18158, "x": null, "y": 0.5616666666666666}, {"type": "position", "time": 18208, "x": null, "y": 0.5616666666666666}, {"type": "position", "time": 18258, "x": null, "y": 0.5616666666666666}, {"type": "position", "time": 18320, "x": null, "y": 0.5616666666666666}, {"type": "position", "time": 18368, "x": null, "y": 0.5616666666666666}, {"type": "position", "time": 18419, "x": null, "y": 0.5616666666666666}, {"type": "position", "time": 18470, "x": null, "y": 0.5616666666666666}, {"type": "position", "time": 18505, "x": null, "y": 0.5616666666666666}, {"type": "position", "time": 18571, "x": null, "y": 0.5616666666666666}, {"type": "position", "time": 18618, "x": null, "y": 0.5616666666666666}, {"type": "position", "time": 18665, "x": null, "y": 0.5616666666666666}, {"type": "slider", "time": 18720, "value": 0.76}, {"type": "position", "time": 18720, "x": null, "y": 0.5616666666666666}, {"type": "position", "time": 18757, "x": null, "y": 0.5616666666666666}, {"type": "click", "time": 18804, "x": null, "y": 0.5616666666666666}, {"type": "position", "time": 18804, "x": null, "y": 0.5616666666666666}, {"type": "position", "time": 18871, "x": null, "y": 0.5616666666666666}, {"type": "position", "time": 18908, "x": null, "y": 0.5616666666666666}, {"type": "position", "time": 18967, "x": null, "y": 0.5616666666666666}, {"type": "position", "time": 19014, "x": null, "y": 0.5616666666666666}, {"type": "position", "time": 19061, "x": null, "y": 0.5616666666666666}, {"type": "position", "time": 19108, "x": null, "y": 0.5616666666666666}, {"type": "position", "time": 19155, "x": null, "y": 0.5916666666666667}, {"type": "position", "time": 19206, "x": null, "y": 0.6216666666666667}, {"type": "position", "time": 19256, "x": null, "y": 0.635}, {"type": "position", "time": 19307, "x": null, "y": 0.6483333333333333}, {"type": "position", "time": 19357, "x": null, "y": 0.6616666666666666}, {"type": "position", "time": 19419, "x": null, "y": 0.6633333333333333}, {"type": "position", "time": 19450, "x": null, "y": 0.6633333333333333}, {"type": "click", "time": 19520, "x": null, "y": 0.6633333333333333}, {"type": "position", "time": 19520, "x": null, "y": 0.6633333333333333}, {"type": "position", "time": 19556, "x": null, "y": 0.6633333333333333}, {"type": "position", "time": 19618, "x": null, "y": 0.6633333333333333}, {"type": "position", "time": 19665, "x": null, "y": 0.6633333333333333}, {"type": "position", "time": 19713, "x": null, "y": 0.6633333333333333}, {"type": "position", "time": 19760, "x": null, "y": 0.6633333333333333}, {"type": "position", "time": 19807, "x": null, "y": 0.6633333333333333}, {"type": "position", "time": 19869, "x": null, "y": 0.6633333333333333}, {"type": "position", "time": 19916, "x": null, "y": 0.6633333333333333}, {"type": "position", "time": 19963, "x": null, "y": 0.6633333333333333}, {"type": "position", "time": 20010, "x": null, "y": 0.6633333333333333}, {"type": "position", "time": 20057, "x": null, "y": 0.6633333333333333}, {"type": "position", "time": 20103, "x": null, "y": 0.6633333333333333}, {"type": "position", "time": 20169, "x": null, "y": 0.6633333333333333}, {"type": "position", "time": 20216, "x": null, "y": 0.6633333333333333}, {"type": "position", "time": 20247, "x": null, "y": 0.6633333333333333}, {"type": "position", "time": 20305, "x": null, "y": 0.6633333333333333}, {"type": "position", "time": 20356, "x": null, "y": 0.6516666666666666}, {"type": "position", "time": 20406, "x": null, "y": 0.6233333333333333}, {"type": "position", "time": 20456, "x": null, "y": 0.6083333333333333}, {"type": "position", "time": 20506, "x": null, "y": 0.6066666666666667}, {"type": "position", "time": 20566, "x": null, "y": 0.6066666666666667}, {"type": "position", "time": 20614, "x": null, "y": 0.6066666666666667}, {"type": "position", "time": 20656, "x": null, "y": 0.6066666666666667}, {"type": "position", "time": 20709, "x": null, "y": 0.6066666666666667}, {"type": "position", "time": 20756, "x": null, "y": 0.6066666666666667}, {"type": "position", "time": 20818, "x": null, "y": 0.6066666666666667}, {"type": "position", "time": 20865, "x": null, "y": 0.6066666666666667}, {"type": "position", "time": 20912, "x": null, "y": 0.6066666666666667}, {"type": "position", "time": 20959, "x": null, "y": 0.6066666666666667}, {"type": "position", "time": 21021, "x": null, "y": 0.6066666666666667}, {"type": "position", "time": 21068, "x": null, "y": 0.6066666666666667}, {"type": "position", "time": 21115, "x": null, "y": 0.6066666666666667}, {"type": "position", "time": 21156, "x": null, "y": 0.6066666666666667}, {"type": "position", "time": 21201, "x": null, "y": 0.6066666666666667}, {"type": "position", "time": 21256, "x": null, "y": 0.6066666666666667}, {"type": "position", "time": 21306, "x": null, "y": 0.6033333333333334}, {"type": "position", "time": 21357, "x": null, "y": 0.5966666666666667}, {"type": "position", "time": 21406, "x": null, "y": 0.5933333333333334}, {"type": "position", "time": 21456, "x": null, "y": 0.59}, {"type": "position", "time": 21506, "x": null, "y": 0.5816666666666667}, {"type": "position", "time": 21556, "x": null, "y": 0.5733333333333334}, {"type": "position", "time": 21606, "x": null, "y": 0.5716666666666667}, {"type": "position", "time": 21656, "x": null, "y": 0.565}, {"type": "position", "time": 21706, "x": null, "y": 0.5566666666666666}, {"type": "position", "time": 21759, "x": null, "y": 0.5483333333333333}, {"type": "position", "time": 21806, "x": null, "y": 0.545}, {"type": "position", "time": 21861, "x": null, "y": 0.545}, {"type": "position", "time": 21918, "x": null, "y": 0.5433333333333333}, {"type": "position", "time": 21965, "x": null, "y": 0.5433333333333333}, {"type": "position", "time": 22012, "x": null, "y": 0.5433333333333333}, {"type": "position", "time": 22059, "x": null, "y": 0.5433333333333333}, {"type": "position", "time": 22121, "x": null, "y": 0.5433333333333333}, {"type": "position", "time": 22156, "x": null, "y": 0.5433333333333333}, {"type": "position", "time": 22216, "x": null, "y": 0.5433333333333333}, {"type": "position", "time": 22263, "x": null, "y": 0.5433333333333333}, {"type": "position", "time": 22310, "x": null, "y": 0.5433333333333333}, {"type": "position", "time": 22368, "x": null, "y": 0.5433333333333333}, {"type": "click", "time": 22368, "x": null, "y": 0.5433333333333333}, {"type": "position", "time": 22406, "x": null, "y": 0.5433333333333333}, {"type": "position", "time": 22469, "x": null, "y": 0.5433333333333333}, {"type": "position", "time": 22516, "x": null, "y": 0.5433333333333333}, {"type": "position", "time": 22563, "x": null, "y": 0.5433333333333333}, {"type": "position", "time": 22609, "x": null, "y": 0.5433333333333333}, {"type": "position", "time": 22656, "x": null, "y": 0.5433333333333333}, {"type": "position", "time": 22721, "x": null, "y": 0.5433333333333333}, {"type": "position", "time": 22767, "x": null, "y": 0.5433333333333333}, {"type": "position", "time": 22814, "x": null, "y": 0.5433333333333333}, {"type": "position", "time": 22861, "x": null, "y": 0.5433333333333333}, {"type": "position", "time": 22921, "x": null, "y": 0.5433333333333333}, {"type": "position", "time": 22968, "x": null, "y": 0.5433333333333333}, {"type": "position", "time": 23014, "x": null, "y": 0.5433333333333333}, {"type": "position", "time": 23061, "x": null, "y": 0.5433333333333333}, {"type": "position", "time": 23108, "x": null, "y": 0.5433333333333333}, {"type": "position", "time": 23156, "x": null, "y": 0.5433333333333333}, {"type": "position", "time": 23217, "x": null, "y": 0.5433333333333333}, {"type": "position", "time": 23263, "x": null, "y": 0.5433333333333333}, {"type": "position", "time": 23310, "x": null, "y": 0.5433333333333333}, {"type": "position", "time": 23358, "x": null, "y": 0.5433333333333333}, {"type": "position", "time": 23420, "x": null, "y": 0.5433333333333333}, {"type": "position", "time": 23467, "x": null, "y": 0.5433333333333333}, {"type": "position", "time": 23513, "x": null, "y": 0.5433333333333333}, {"type": "position", "time": 23560, "x": null, "y": 0.5433333333333333}, {"type": "position", "time": 23607, "x": null, "y": 0.5433333333333333}, {"type": "position", "time": 23669, "x": null, "y": 0.5433333333333333}, {"type": "position", "time": 23716, "x": null, "y": 0.5433333333333333}, {"type": "position", "time": 23763, "x": null, "y": 0.5433333333333333}, {"type": "position", "time": 23810, "x": null, "y": 0.5433333333333333}, {"type": "position", "time": 23857, "x": null, "y": 0.5433333333333333}, {"type": "position", "time": 23919, "x": null, "y": 0.5433333333333333}, {"type": "position", "time": 23968, "x": null, "y": 0.5433333333333333}, {"type": "position", "time": 24015, "x": null, "y": 0.5433333333333333}, {"type": "position", "time": 24061, "x": null, "y": 0.5433333333333333}, {"type": "position", "time": 24108, "x": null, "y": 0.5433333333333333}, {"type": "position", "time": 24155, "x": null, "y": 0.5433333333333333}, {"type": "position", "time": 24219, "x": null, "y": 0.5433333333333333}, {"type": "position", "time": 24266, "x": null, "y": 0.5433333333333333}, {"type": "position", "time": 24313, "x": null, "y": 0.5433333333333333}, {"type": "position", "time": 24360, "x": null, "y": 0.5433333333333333}, {"type": "position", "time": 24406, "x": null, "y": 0.5433333333333333}, {"type": "position", "time": 24471, "x": null, "y": 0.5433333333333333}, {"type": "position", "time": 24518, "x": null, "y": 0.5433333333333333}, {"type": "position", "time": 24564, "x": null, "y": 0.5433333333333333}, {"type": "position", "time": 24611, "x": null, "y": 0.5433333333333333}, {"type": "position", "time": 24658, "x": null, "y": 0.5433333333333333}, {"type": "position", "time": 24720, "x": null, "y": 0.5433333333333333}, {"type": "position", "time": 24767, "x": null, "y": 0.5433333333333333}, {"type": "position", "time": 24814, "x": null, "y": 0.5433333333333333}, {"type": "position", "time": 24861, "x": null, "y": 0.5433333333333333}, {"type": "position", "time": 24908, "x": null, "y": 0.5433333333333333}, {"type": "position", "time": 24970, "x": null, "y": 0.5433333333333333}, {"type": "position", "time": 25019, "x": null, "y": 0.5433333333333333}, {"type": "position", "time": 25066, "x": null, "y": 0.5433333333333333}, {"type": "position", "time": 25112, "x": null, "y": 0.5433333333333333}, {"type": "position", "time": 25159, "x": null, "y": 0.5433333333333333}, {"type": "position", "time": 25218, "x": null, "y": 0.5433333333333333}, {"type": "position", "time": 25265, "x": null, "y": 0.5433333333333333}, {"type": "position", "time": 25312, "x": null, "y": 0.5433333333333333}, {"type": "position", "time": 25359, "x": null, "y": 0.5433333333333333}, {"type": "position", "time": 25421, "x": null, "y": 0.5433333333333333}, {"type": "position", "time": 25468, "x": null, "y": 0.5433333333333333}, {"type": "position", "time": 25515, "x": null, "y": 0.5433333333333333}, {"type": "position", "time": 25568, "x": null, "y": 0.5433333333333333}, {"type": "position", "time": 25615, "x": null, "y": 0.5433333333333333}, {"type": "position", "time": 25662, "x": null, "y": 0.5433333333333333}, {"type": "position", "time": 25710, "x": null, "y": 0.5433333333333333}, {"type": "position", "time": 25757, "x": null, "y": 0.5433333333333333}, {"type": "position", "time": 25820, "x": null, "y": 0.5433333333333333}, {"type": "position", "time": 25866, "x": null, "y": 0.5433333333333333}, {"type": "position", "time": 25913, "x": null, "y": 0.5433333333333333}, {"type": "position", "time": 25960, "x": null, "y": 0.5433333333333333}, {"type": "position", "time": 26007, "x": null, "y": 0.5433333333333333}, {"type": "position", "time": 26056, "x": null, "y": 0.5433333333333333}, {"type": "position", "time": 26118, "x": null, "y": 0.5433333333333333}, {"type": "position", "time": 26165, "x": null, "y": 0.5433333333333333}, {"type": "position", "time": 26206, "x": null, "y": 0.5433333333333333}, {"type": "position", "time": 26266, "x": null, "y": 0.5433333333333333}, {"type": "position", "time": 26313, "x": null, "y": 0.5433333333333333}, {"type": "position", "time": 26360, "x": null, "y": 0.5433333333333333}, {"type": "position", "time": 26407, "x": null, "y": 0.5433333333333333}, {"type": "position", "time": 26469, "x": null, "y": 0.5433333333333333}, {"type": "position", "time": 26516, "x": null, "y": 0.5433333333333333}, {"type": "position", "time": 26563, "x": null, "y": 0.5433333333333333}, {"type": "position", "time": 26617, "x": null, "y": 0.5433333333333333}, {"type": "position", "time": 26664, "x": null, "y": 0.5433333333333333}, {"type": "position", "time": 26711, "x": null, "y": 0.5433333333333333}, {"type": "position", "time": 26758, "x": null, "y": 0.5433333333333333}, {"type": "position", "time": 26820, "x": null, "y": 0.5433333333333333}, {"type": "position", "time": 26867, "x": null, "y": 0.5433333333333333}, {"type": "position", "time": 26914, "x": null, "y": 0.5433333333333333}, {"type": "position", "time": 26961, "x": null, "y": 0.5433333333333333}, {"type": "position", "time": 27007, "x": null, "y": 0.5433333333333333}, {"type": "position", "time": 27070, "x": null, "y": 0.5433333333333333}, {"type": "position", "time": 27120, "x": null, "y": 0.5433333333333333}, {"type": "position", "time": 27166, "x": null, "y": 0.5433333333333333}, {"type": "position", "time": 27219, "x": null, "y": 0.5433333333333333}, {"type": "position", "time": 27265, "x": null, "y": 0.5433333333333333}, {"type": "position", "time": 27312, "x": null, "y": 0.5433333333333333}, {"type": "position", "time": 27359, "x": null, "y": 0.5433333333333333}, {"type": "position", "time": 27421, "x": null, "y": 0.5433333333333333}, {"type": "position", "time": 27468, "x": null, "y": 0.5433333333333333}, {"type": "position", "time": 27515, "x": null, "y": 0.5433333333333333}, {"type": "position", "time": 27562, "x": null, "y": 0.5433333333333333}, {"type": "position", "time": 27609, "x": null, "y": 0.5433333333333333}, {"type": "position", "time": 27657, "x": null, "y": 0.5433333333333333}, {"type": "position", "time": 27720, "x": null, "y": 0.5433333333333333}, {"type": "position", "time": 27767, "x": null, "y": 0.5433333333333333}, {"type": "position", "time": 27813, "x": null, "y": 0.5433333333333333}, {"type": "position", "time": 27860, "x": null, "y": 0.5433333333333333}, {"type": "position", "time": 27907, "x": null, "y": 0.5433333333333333}, {"type": "position", "time": 27969, "x": null, "y": 0.5433333333333333}, {"type": "position", "time": 28016, "x": null, "y": 0.5433333333333333}, {"type": "position", "time": 28063, "x": null, "y": 0.5433333333333333}, {"type": "position", "time": 28110, "x": null, "y": 0.5433333333333333}, {"type": "position", "time": 28157, "x": null, "y": 0.5433333333333333}, {"type": "position", "time": 28218, "x": null, "y": 0.5433333333333333}, {"type": "position", "time": 28265, "x": null, "y": 0.5433333333333333}, {"type": "position", "time": 28312, "x": null, "y": 0.5433333333333333}, {"type": "position", "time": 28359, "x": null, "y": 0.5433333333333333}, {"type": "position", "time": 28421, "x": null, "y": 0.5433333333333333}, {"type": "position", "time": 28468, "x": null, "y": 0.5433333333333333}, {"type": "position", "time": 28515, "x": null, "y": 0.5433333333333333}, {"type": "position", "time": 28561, "x": null, "y": 0.5433333333333333}, {"type": "position", "time": 28608, "x": null, "y": 0.5433333333333333}, {"type": "position", "time": 28655, "x": null, "y": 0.5433333333333333}, {"type": "position", "time": 28720, "x": null, "y": 0.5433333333333333}, {"type": "position", "time": 28767, "x": null, "y": 0.5433333333333333}, {"type": "position", "time": 28814, "x": null, "y": 0.5433333333333333}, {"type": "position", "time": 28861, "x": null, "y": 0.5433333333333333}, {"type": "position", "time": 28908, "x": null, "y": 0.5433333333333333}, {"type": "position", "time": 28970, "x": null, "y": 0.5433333333333333}, {"type": "position", "time": 29017, "x": null, "y": 0.5433333333333333}, {"type": "position", "time": 29064, "x": null, "y": 0.5433333333333333}, {"type": "position", "time": 29110, "x": null, "y": 0.5433333333333333}, {"type": "position", "time": 29157, "x": null, "y": 0.5433333333333333}, {"type": "position", "time": 29206, "x": null, "y": 0.5433333333333333}, {"type": "position", "time": 29268, "x": null, "y": 0.5433333333333333}, {"type": "position", "time": 29314, "x": null, "y": 0.5433333333333333}, {"type": "position", "time": 29361, "x": null, "y": 0.5433333333333333}, {"type": "position", "time": 29408, "x": null, "y": 0.5433333333333333}, {"type": "position", "time": 29468, "x": null, "y": 0.5433333333333333}, {"type": "keyup", "time": 29483, "key": "\u0010", "keyCode": 16}, {"type": "keyup", "time": 29483, "key": "H", "keyCode": 72}, {"type": "position", "time": 29515, "x": null, "y": 0.5433333333333333}, {"type": "position", "time": 29561, "x": null, "y": 0.5433333333333333}, {"type": "position", "time": 29608, "x": null, "y": 0.5433333333333333}, {"type": "position", "time": 29656, "x": null, "y": 0.5433333333333333}, {"type": "position", "time": 29718, "x": null, "y": 0.5433333333333333}, {"type": "position", "time": 29749, "x": null, "y": 0.5433333333333333}, {"type": "keyup", "time": 29765, "key": "E", "keyCode": 69}, {"type": "position", "time": 29820, "x": null, "y": 0.5433333333333333}, {"type": "keyup", "time": 29851, "key": " ", "keyCode": 32}, {"type": "position", "time": 29851, "x": null, "y": 0.5433333333333333}, {"type": "position", "time": 29913, "x": null, "y": 0.5433333333333333}, {"type": "position", "time": 29960, "x": null, "y": 0.5433333333333333}, {"type": "position", "time": 30007, "x": null, "y": 0.5433333333333333}, {"type": "position", "time": 30069, "x": null, "y": 0.5433333333333333}, {"type": "position", "time": 30116, "x": null, "y": 0.5433333333333333}, {"type": "position", "time": 30163, "x": null, "y": 0.5433333333333333}, {"type": "position", "time": 30206, "x": null, "y": 0.5433333333333333}, {"type": "position", "time": 30266, "x": null, "y": 0.5433333333333333}, {"type": "position", "time": 30313, "x": null, "y": 0.5433333333333333}, {"type": "position", "time": 30371, "x": null, "y": 0.5433333333333333}, {"type": "position", "time": 30406, "x": null, "y": 0.5433333333333333}, {"type": "keyup", "time": 30451, "key": "F", "keyCode": 70}, {"type": "position", "time": 30467, "x": null, "y": 0.5433333333333333}, {"type": "position", "time": 30498, "x": null, "y": 0.5433333333333333}, {"type": "position", "time": 30568, "x": null, "y": 0.5433333333333333}, {"type": "keyup", "time": 30599, "key": "A", "keyCode": 65}, {"type": "position", "time": 30599, "x": null, "y": 0.5433333333333333}, {"type": "position", "time": 30670, "x": null, "y": 0.5433333333333333}, {"type": "keyup", "time": 30703, "key": "I", "keyCode": 73}, {"type": "position", "time": 30703, "x": null, "y": 0.5433333333333333}, {"type": "position", "time": 30765, "x": null, "y": 0.5433333333333333}, {"type": "position", "time": 30812, "x": null, "y": 0.5433333333333333}, {"type": "position", "time": 30843, "x": null, "y": 0.5433333333333333}, {"type": "position", "time": 30921, "x": null, "y": 0.5433333333333333}, {"type": "keyup", "time": 30937, "key": "L", "keyCode": 76}, {"type": "keyup", "time": 30952, "key": "E", "keyCode": 69}, {"type": "position", "time": 30952, "x": null, "y": 0.5433333333333333}, {"type": "position", "time": 31015, "x": null, "y": 0.5433333333333333}, {"type": "position", "time": 31062, "x": null, "y": 0.5433333333333333}, {"type": "position", "time": 31108, "x": null, "y": 0.5433333333333333}, {"type": "position", "time": 31169, "x": null, "y": 0.5433333333333333}, {"type": "position", "time": 31206, "x": null, "y": 0.5433333333333333}, {"type": "keyup", "time": 31235, "key": "D", "keyCode": 68}, {"type": "position", "time": 31266, "x": null, "y": 0.5433333333333333}, {"type": "position", "time": 31313, "x": null, "y": 0.5433333333333333}, {"type": "position", "time": 31360, "x": null, "y": 0.5433333333333333}, {"type": "position", "time": 31407, "x": null, "y": 0.5433333333333333}, {"type": "position", "time": 31469, "x": null, "y": 0.5433333333333333}, {"type": "position", "time": 31516, "x": null, "y": 0.5433333333333333}, {"type": "position", "time": 31563, "x": null, "y": 0.5433333333333333}, {"type": "position", "time": 31609, "x": null, "y": 0.5433333333333333}, {"type": "position", "time": 31656, "x": null, "y": 0.5433333333333333}, {"type": "position", "time": 31718, "x": null, "y": 0.5433333333333333}, {"type": "position", "time": 31765, "x": null, "y": 0.5433333333333333}, {"type": "position", "time": 31812, "x": null, "y": 0.5433333333333333}, {"type": "keyup", "time": 31867, "key": " ", "keyCode": 32}, {"type": "position", "time": 31867, "x": null, "y": 0.5433333333333333}, {"type": "position", "time": 31914, "x": null, "y": 0.5433333333333333}, {"type": "position", "time": 31961, "x": null, "y": 0.5433333333333333}, {"type": "position", "time": 32008, "x": null, "y": 0.5433333333333333}, {"type": "position", "time": 32069, "x": null, "y": 0.5433333333333333}, {"type": "keyup", "time": 32084, "key": "T", "keyCode": 84}, {"type": "position", "time": 32100, "x": null, "y": 0.5433333333333333}, {"type": "position", "time": 32168, "x": null, "y": 0.5433333333333333}, {"type": "keyup", "time": 32199, "key": "O", "keyCode": 79}, {"type": "position", "time": 32215, "x": null, "y": 0.5433333333333333}, {"type": "position", "time": 32256, "x": null, "y": 0.5433333333333333}, {"type": "keyup", "time": 32286, "key": " ", "keyCode": 32}, {"type": "position", "time": 32317, "x": null, "y": 0.5433333333333333}, {"type": "position", "time": 32364, "x": null, "y": 0.5433333333333333}, {"type": "position", "time": 32411, "x": null, "y": 0.5433333333333333}, {"type": "position", "time": 32458, "x": null, "y": 0.5433333333333333}, {"type": "position", "time": 32506, "x": null, "y": 0.5433333333333333}, {"type": "keyup", "time": 32538, "key": "A", "keyCode": 65}, {"type": "position", "time": 32569, "x": null, "y": 0.5433333333333333}, {"type": "position", "time": 32616, "x": null, "y": 0.5433333333333333}, {"type": "position", "time": 32662, "x": null, "y": 0.5433333333333333}, {"type": "position", "time": 32709, "x": null, "y": 0.5433333333333333}, {"type": "keyup", "time": 32720, "key": "T", "keyCode": 84}, {"type": "position", "time": 32767, "x": null, "y": 0.5433333333333333}, {"type": "position", "time": 32814, "x": null, "y": 0.5433333333333333}, {"type": "position", "time": 32870, "x": null, "y": 0.5433333333333333}, {"type": "keyup", "time": 32901, "key": "T", "keyCode": 84}, {"type": "position", "time": 32916, "x": null, "y": 0.5433333333333333}, {"type": "position", "time": 32963, "x": null, "y": 0.5433333333333333}, {"type": "position", "time": 33010, "x": null, "y": 0.5433333333333333}, {"type": "position", "time": 33068, "x": null, "y": 0.5433333333333333}, {"type": "keyup", "time": 33083, "key": "E", "keyCode": 69}, {"type": "position", "time": 33115, "x": null, "y": 0.5433333333333333}, {"type": "position", "time": 33161, "x": null, "y": 0.5433333333333333}, {"type": "position", "time": 33208, "x": null, "y": 0.5433333333333333}, {"type": "position", "time": 33268, "x": null, "y": 0.5433333333333333}, {"type": "position", "time": 33315, "x": null, "y": 0.5433333333333333}, {"type": "keyup", "time": 33330, "key": "N", "keyCode": 78}, {"type": "position", "time": 33371, "x": null, "y": 0.5433333333333333}, {"type": "position", "time": 33417, "x": null, "y": 0.5433333333333333}, {"type": "keyup", "time": 33433, "key": "D", "keyCode": 68}, {"type": "position", "time": 33464, "x": null, "y": 0.5433333333333333}, {"type": "position", "time": 33511, "x": null, "y": 0.5433333333333333}, {"type": "position", "time": 33558, "x": null, "y": 0.5433333333333333}, {"type": "position", "time": 33620, "x": null, "y": 0.5433333333333333}, {"type": "position", "time": 33667, "x": null, "y": 0.5433333333333333}, {"type": "position", "time": 33714, "x": null, "y": 0.5433333333333333}, {"type": "position", "time": 33761, "x": null, "y": 0.5433333333333333}, {"type": "position", "time": 33807, "x": null, "y": 0.5433333333333333}, {"type": "position", "time": 33854, "x": null, "y": 0.5433333333333333}, {"type": "position", "time": 33918, "x": null, "y": 0.5433333333333333}, {"type": "position", "time": 33965, "x": null, "y": 0.5433333333333333}, {"type": "position", "time": 34012, "x": null, "y": 0.5433333333333333}, {"type": "position", "time": 34058, "x": null, "y": 0.5433333333333333}, {"type": "position", "time": 34121, "x": null, "y": 0.5433333333333333}, {"type": "position", "time": 34168, "x": null, "y": 0.5433333333333333}, {"type": "position", "time": 34214, "x": null, "y": 0.5433333333333333}, {"type": "position", "time": 34256, "x": null, "y": 0.5433333333333333}, {"type": "position", "time": 34316, "x": null, "y": 0.5433333333333333}, {"type": "position", "time": 34363, "x": null, "y": 0.5433333333333333}, {"type": "position", "time": 34409, "x": null, "y": 0.5433333333333333}, {"type": "position", "time": 34458, "x": null, "y": 0.5433333333333333}, {"type": "position", "time": 34521, "x": null, "y": 0.5433333333333333}, {"type": "position", "time": 34567, "x": null, "y": 0.5433333333333333}, {"type": "position", "time": 34614, "x": null, "y": 0.5433333333333333}, {"type": "position", "time": 34661, "x": null, "y": 0.5433333333333333}, {"type": "position", "time": 34711, "x": null, "y": 0.5433333333333333}, {"type": "position", "time": 34758, "x": null, "y": 0.5433333333333333}, {"type": "position", "time": 34820, "x": null, "y": 0.5433333333333333}, {"type": "position", "time": 34867, "x": null, "y": 0.5433333333333333}, {"type": "position", "time": 34914, "x": null, "y": 0.5433333333333333}, {"type": "position", "time": 34969, "x": null, "y": 0.5433333333333333}, {"type": "position", "time": 35016, "x": null, "y": 0.5433333333333333}, {"type": "position", "time": 35063, "x": null, "y": 0.5433333333333333}, {"type": "position", "time": 35110, "x": null, "y": 0.5433333333333333}, {"type": "position", "time": 35157, "x": null, "y": 0.5433333333333333}, {"type": "position", "time": 35203, "x": null, "y": 0.5433333333333333}, {"type": "position", "time": 35257, "x": null, "y": 0.5433333333333333}, {"type": "keyup", "time": 35286, "key": "\u00be", "keyCode": 190}, {"type": "position", "time": 35317, "x": null, "y": 0.5433333333333333}, {"type": "position", "time": 35364, "x": null, "y": 0.5433333333333333}, {"type": "position", "time": 35411, "x": null, "y": 0.5433333333333333}, {"type": "position", "time": 35458, "x": null, "y": 0.5433333333333333}, {"type": "position", "time": 35520, "x": null, "y": 0.5433333333333333}, {"type": "position", "time": 35567, "x": null, "y": 0.5433333333333333}, {"type": "position", "time": 35614, "x": null, "y": 0.5433333333333333}, {"type": "position", "time": 35645, "x": null, "y": 0.5533333333333333}, {"type": "position", "time": 35706, "x": null, "y": 0.5766666666666667}, {"type": "position", "time": 35756, "x": null, "y": 0.5833333333333334}, {"type": "position", "time": 35806, "x": null, "y": 0.5933333333333334}, {"type": "position", "time": 35856, "x": null, "y": 0.6133333333333333}, {"type": "position", "time": 35906, "x": null, "y": 0.615}, {"type": "position", "time": 35968, "x": null, "y": 0.615}, {"type": "position", "time": 36015, "x": null, "y": 0.615}, {"type": "position", "time": 36062, "x": null, "y": 0.6166666666666667}, {"type": "position", "time": 36110, "x": null, "y": 0.6233333333333333}, {"type": "position", "time": 36157, "x": null, "y": 0.6316666666666667}, {"type": "position", "time": 36208, "x": null, "y": 0.6383333333333333}, {"type": "position", "time": 36257, "x": null, "y": 0.6416666666666667}, {"type": "position", "time": 36312, "x": null, "y": 0.6433333333333333}, {"type": "position", "time": 36357, "x": null, "y": 0.6433333333333333}, {"type": "position", "time": 36416, "x": null, "y": 0.6433333333333333}, {"type": "position", "time": 36448, "x": null, "y": 0.6433333333333333}, {"type": "position", "time": 36520, "x": null, "y": 0.6433333333333333}, {"type": "position", "time": 36567, "x": null, "y": 0.6433333333333333}, {"type": "click", "time": 36582, "x": null, "y": 0.6433333333333333}, {"type": "position", "time": 36607, "x": null, "y": 0.6433333333333333}, {"type": "position", "time": 36668, "x": null, "y": 0.6433333333333333}, {"type": "position", "time": 36715, "x": null, "y": 0.6433333333333333}, {"type": "position", "time": 36762, "x": null, "y": 0.6433333333333333}, {"type": "position", "time": 36809, "x": null, "y": 0.6433333333333333}, {"type": "position", "time": 36871, "x": null, "y": 0.6433333333333333}, {"type": "position", "time": 36918, "x": null, "y": 0.6433333333333333}, {"type": "position", "time": 36965, "x": null, "y": 0.6433333333333333}, {"type": "position", "time": 37012, "x": null, "y": 0.6433333333333333}, {"type": "position", "time": 37058, "x": null, "y": 0.6433333333333333}, {"type": "position", "time": 37121, "x": null, "y": 0.6433333333333333}, {"type": "position", "time": 37168, "x": null, "y": 0.6433333333333333}, {"type": "position", "time": 37214, "x": null, "y": 0.6433333333333333}, {"type": "position", "time": 37268, "x": null, "y": 0.6433333333333333}, {"type": "position", "time": 37320, "x": null, "y": 0.6433333333333333}, {"type": "position", "time": 37367, "x": null, "y": 0.6433333333333333}, {"type": "position", "time": 37414, "x": null, "y": 0.6433333333333333}, {"type": "position", "time": 37460, "x": null, "y": 0.6433333333333333}, {"type": "position", "time": 37507, "x": null, "y": 0.6566666666666666}, {"type": "position", "time": 37557, "x": null, "y": 0.6683333333333333}, {"type": "position", "time": 37609, "x": null, "y": 0.68}, {"type": "position", "time": 37656, "x": null, "y": 0.6883333333333334}, {"type": "position", "time": 37707, "x": null, "y": 0.7}, {"type": "position", "time": 37756, "x": null, "y": 0.7016666666666667}, {"type": "position", "time": 37818, "x": null, "y": 0.7016666666666667}, {"type": "position", "time": 37864, "x": null, "y": 0.7016666666666667}, {"type": "position", "time": 37902, "x": null, "y": 0.7016666666666667}, {"type": "position", "time": 37957, "x": null, "y": 0.6983333333333334}, {"type": "position", "time": 38007, "x": null, "y": 0.6916666666666667}, {"type": "position", "time": 38057, "x": null, "y": 0.69}, {"type": "position", "time": 38107, "x": null, "y": 0.69}, {"type": "position", "time": 38157, "x": null, "y": 0.69}, {"type": "position", "time": 38207, "x": null, "y": 0.6916666666666667}, {"type": "position", "time": 38257, "x": null, "y": 0.6916666666666667}, {"type": "position", "time": 38307, "x": null, "y": 0.6916666666666667}, {"type": "position", "time": 38367, "x": null, "y": 0.6916666666666667}, {"type": "position", "time": 38413, "x": null, "y": 0.6916666666666667}, {"type": "position", "time": 38460, "x": null, "y": 0.6916666666666667}, {"type": "position", "time": 38507, "x": null, "y": 0.6916666666666667}, {"type": "position", "time": 38569, "x": null, "y": 0.6916666666666667}, {"type": "position", "time": 38616, "x": null, "y": 0.6916666666666667}, {"type": "position", "time": 38663, "x": null, "y": 0.6916666666666667}, {"type": "position", "time": 38710, "x": null, "y": 0.6916666666666667}, {"type": "position", "time": 38757, "x": null, "y": 0.6916666666666667}, {"type": "position", "time": 38819, "x": null, "y": 0.6916666666666667}, {"type": "position", "time": 38866, "x": null, "y": 0.6916666666666667}, {"type": "position", "time": 38913, "x": null, "y": 0.6916666666666667}, {"type": "position", "time": 38956, "x": null, "y": 0.6916666666666667}, {"type": "position", "time": 39006, "x": null, "y": 0.6916666666666667}, {"type": "position", "time": 39066, "x": null, "y": 0.6916666666666667}, {"type": "position", "time": 39107, "x": null, "y": 0.6916666666666667}, {"type": "position", "time": 39152, "x": null, "y": 0.6916666666666667}, {"type": "position", "time": 39219, "x": null, "y": 0.6916666666666667}, {"type": "position", "time": 39269, "x": null, "y": 0.6916666666666667}, {"type": "position", "time": 39320, "x": null, "y": 0.6916666666666667}, {"type": "position", "time": 39367, "x": null, "y": 0.6916666666666667}, {"type": "position", "time": 39414, "x": null, "y": 0.6916666666666667}, {"type": "position", "time": 39461, "x": null, "y": 0.6933333333333334}, {"type": "position", "time": 39510, "x": null, "y": 0.6966666666666667}, {"type": "position", "time": 39557, "x": null, "y": 0.7}, {"type": "position", "time": 39607, "x": null, "y": 0.705}, {"type": "position", "time": 39657, "x": null, "y": 0.71}, {"type": "position", "time": 39707, "x": null, "y": 0.71}, {"type": "position", "time": 39757, "x": null, "y": 0.7083333333333334}, {"type": "position", "time": 39807, "x": null, "y": 0.7066666666666667}, {"type": "position", "time": 39857, "x": null, "y": 0.7}, {"type": "position", "time": 39907, "x": null, "y": 0.6916666666666667}, {"type": "position", "time": 39969, "x": null, "y": 0.69}, {"type": "position", "time": 40018, "x": null, "y": 0.6883333333333334}, {"type": "slider", "time": 40050, "value": 0.23}, {"type": "position", "time": 40050, "x": null, "y": 0.6883333333333334}, {"type": "position", "time": 40118, "x": null, "y": 0.6883333333333334}, {"type": "click", "time": 40150, "x": null, "y": 0.6883333333333334}, {"type": "position", "time": 40165, "x": null, "y": 0.6883333333333334}, {"type": "position", "time": 40207, "x": null, "y": 0.6883333333333334}, {"type": "position", "time": 40256, "x": null, "y": 0.6883333333333334}, {"type": "position", "time": 40307, "x": null, "y": 0.6966666666666667}, {"type": "position", "time": 40358, "x": null, "y": 0.7216666666666667}, {"type": "position", "time": 40407, "x": null, "y": 0.7433333333333333}, {"type": "position", "time": 40457, "x": null, "y": 0.7533333333333333}, {"type": "position", "time": 40507, "x": null, "y": 0.7566666666666667}, {"type": "position", "time": 40557, "x": null, "y": 0.76}, {"type": "position", "time": 40607, "x": null, "y": 0.765}, {"type": "position", "time": 40657, "x": null, "y": 0.7666666666666667}, {"type": "position", "time": 40707, "x": null, "y": 0.7683333333333333}, {"type": "position", "time": 40757, "x": null, "y": 0.77}, {"type": "position", "time": 40807, "x": null, "y": 0.7733333333333333}, {"type": "position", "time": 40857, "x": null, "y": 0.775}, {"type": "position", "time": 40910, "x": null, "y": 0.78}, {"type": "position", "time": 40957, "x": null, "y": 0.7816666666666666}, {"type": "position", "time": 41007, "x": null, "y": 0.7833333333333333}, {"type": "position", "time": 41057, "x": null, "y": 0.7833333333333333}, {"type": "click", "time": 41101, "x": null, "y": 0.7833333333333333}, {"type": "position", "time": 41116, "x": null, "y": 0.7833333333333333}, {"type": "position", "time": 41157, "x": null, "y": 0.7833333333333333}, {"type": "position", "time": 41217, "x": null, "y": 0.7833333333333333}, {"type": "position", "time": 41264, "x": null, "y": 0.7833333333333333}, {"type": "position", "time": 41317, "x": null, "y": 0.7833333333333333}, {"type": "position", "time": 41364, "x": null, "y": 0.7833333333333333}, {"type": "position", "time": 41410, "x": null, "y": 0.7833333333333333}, {"type": "position", "time": 41457, "x": null, "y": 0.7833333333333333}, {"type": "position", "time": 41520, "x": null, "y": 0.7833333333333333}, {"type": "position", "time": 41566, "x": null, "y": 0.7833333333333333}, {"type": "position", "time": 41613, "x": null, "y": 0.7833333333333333}, {"type": "position", "time": 41660, "x": null, "y": 0.7833333333333333}, {"type": "position", "time": 41707, "x": null, "y": 0.7833333333333333}, {"type": "position", "time": 41769, "x": null, "y": 0.7833333333333333}, {"type": "position", "time": 41816, "x": null, "y": 0.7833333333333333}, {"type": "position", "time": 41863, "x": null, "y": 0.7833333333333333}, {"type": "position", "time": 41910, "x": null, "y": 0.78}, {"type": "position", "time": 41956, "x": null, "y": 0.75}, {"type": "position", "time": 42006, "x": null, "y": 0.6983333333333334}, {"type": "position", "time": 42056, "x": null, "y": 0.685}, {"type": "position", "time": 42117, "x": null, "y": 0.6833333333333333}, {"type": "position", "time": 42167, "x": null, "y": 0.6833333333333333}, {"type": "position", "time": 42214, "x": null, "y": 0.6833333333333333}, {"type": "position", "time": 42261, "x": null, "y": 0.6833333333333333}, {"type": "position", "time": 42318, "x": null, "y": 0.6833333333333333}, {"type": "position", "time": 42364, "x": null, "y": 0.6833333333333333}, {"type": "position", "time": 42411, "x": null, "y": 0.6833333333333333}, {"type": "position", "time": 42458, "x": null, "y": 0.6833333333333333}, {"type": "position", "time": 42520, "x": null, "y": 0.6833333333333333}, {"type": "position", "time": 42567, "x": null, "y": 0.6833333333333333}, {"type": "position", "time": 42614, "x": null, "y": 0.6833333333333333}, {"type": "position", "time": 42662, "x": null, "y": 0.6783333333333333}, {"type": "position", "time": 42707, "x": null, "y": 0.6716666666666666}, {"type": "position", "time": 42757, "x": null, "y": 0.635}, {"type": "position", "time": 42807, "x": null, "y": 0.5866666666666667}, {"type": "position", "time": 42857, "x": null, "y": 0.565}, {"type": "position", "time": 42907, "x": null, "y": 0.5616666666666666}, {"type": "position", "time": 42967, "x": null, "y": 0.5616666666666666}, {"type": "position", "time": 43001, "x": null, "y": 0.5633333333333334}, {"type": "position", "time": 43056, "x": null, "y": 0.5733333333333334}, {"type": "position", "time": 43107, "x": null, "y": 0.59}, {"type": "position", "time": 43158, "x": null, "y": 0.62}, {"type": "position", "time": 43208, "x": null, "y": 0.6416666666666667}, {"type": "position", "time": 43260, "x": null, "y": 0.6533333333333333}, {"type": "position", "time": 43307, "x": null, "y": 0.6566666666666666}, {"type": "position", "time": 43370, "x": null, "y": 0.66}, {"type": "position", "time": 43411, "x": null, "y": 0.6633333333333333}, {"type": "position", "time": 43453, "x": null, "y": 0.6666666666666666}, {"type": "position", "time": 43517, "x": null, "y": 0.6666666666666666}, {"type": "position", "time": 43564, "x": null, "y": 0.6666666666666666}, {"type": "position", "time": 43611, "x": null, "y": 0.6666666666666666}, {"type": "position", "time": 43658, "x": null, "y": 0.6666666666666666}, {"type": "position", "time": 43720, "x": null, "y": 0.6666666666666666}, {"type": "position", "time": 43767, "x": null, "y": 0.6666666666666666}, {"type": "position", "time": 43814, "x": null, "y": 0.6666666666666666}, {"type": "position", "time": 43860, "x": null, "y": 0.6666666666666666}, {"type": "position", "time": 43907, "x": null, "y": 0.6666666666666666}, {"type": "position", "time": 43970, "x": null, "y": 0.6666666666666666}, {"type": "position", "time": 44016, "x": null, "y": 0.6666666666666666}, {"type": "position", "time": 44063, "x": null, "y": 0.6666666666666666}, {"type": "position", "time": 44110, "x": null, "y": 0.6666666666666666}, {"type": "position", "time": 44157, "x": null, "y": 0.6666666666666666}, {"type": "position", "time": 44219, "x": null, "y": 0.6666666666666666}, {"type": "position", "time": 44266, "x": null, "y": 0.6666666666666666}, {"type": "position", "time": 44310, "x": null, "y": 0.6666666666666666}, {"type": "position", "time": 44372, "x": null, "y": 0.6666666666666666}, {"type": "position", "time": 44419, "x": null, "y": 0.6666666666666666}, {"type": "position", "time": 44466, "x": null, "y": 0.6666666666666666}, {"type": "position", "time": 44512, "x": null, "y": 0.6666666666666666}, {"type": "position", "time": 44559, "x": null, "y": 0.6666666666666666}, {"type": "position", "time": 44622, "x": null, "y": 0.6666666666666666}, {"type": "position", "time": 44668, "x": null, "y": 0.6666666666666666}, {"type": "position", "time": 44715, "x": null, "y": 0.6666666666666666}, {"type": "position", "time": 44762, "x": null, "y": 0.6666666666666666}, {"type": "position", "time": 44809, "x": null, "y": 0.6666666666666666}, {"type": "position", "time": 44871, "x": null, "y": 0.6666666666666666}, {"type": "position", "time": 44918, "x": null, "y": 0.6666666666666666}, {"type": "position", "time": 44965, "x": null, "y": 0.6666666666666666}, {"type": "position", "time": 45012, "x": null, "y": 0.6666666666666666}, {"type": "position", "time": 45058, "x": null, "y": 0.6666666666666666}, {"type": "position", "time": 45121, "x": null, "y": 0.6666666666666666}, {"type": "position", "time": 45168, "x": null, "y": 0.6666666666666666}, {"type": "position", "time": 45214, "x": null, "y": 0.6666666666666666}, {"type": "position", "time": 45261, "x": null, "y": 0.6666666666666666}, {"type": "position", "time": 45318, "x": null, "y": 0.6666666666666666}, {"type": "position", "time": 45365, "x": null, "y": 0.6666666666666666}, {"type": "position", "time": 45412, "x": null, "y": 0.6666666666666666}, {"type": "position", "time": 45461, "x": null, "y": 0.6666666666666666}, {"type": "position", "time": 45508, "x": null, "y": 0.6666666666666666}, {"type": "position", "time": 45571, "x": null, "y": 0.6666666666666666}, {"type": "position", "time": 45617, "x": null, "y": 0.6666666666666666}, {"type": "position", "time": 45664, "x": null, "y": 0.6666666666666666}, {"type": "position", "time": 45711, "x": null, "y": 0.6666666666666666}, {"type": "position", "time": 45758, "x": null, "y": 0.6666666666666666}, {"type": "position", "time": 45820, "x": null, "y": 0.6666666666666666}, {"type": "position", "time": 45867, "x": null, "y": 0.6666666666666666}, {"type": "position", "time": 45914, "x": null, "y": 0.6666666666666666}, {"type": "position", "time": 45961, "x": null, "y": 0.6666666666666666}, {"type": "position", "time": 46007, "x": null, "y": 0.6666666666666666}, {"type": "position", "time": 46070, "x": null, "y": 0.6666666666666666}, {"type": "position", "time": 46117, "x": null, "y": 0.6666666666666666}, {"type": "position", "time": 46163, "x": null, "y": 0.6666666666666666}, {"type": "position", "time": 46210, "x": null, "y": 0.6666666666666666}, {"type": "position", "time": 46257, "x": null, "y": 0.6666666666666666}, {"type": "position", "time": 46307, "x": null, "y": 0.6666666666666666}, {"type": "position", "time": 46366, "x": null, "y": 0.6666666666666666}, {"type": "position", "time": 46412, "x": null, "y": 0.6666666666666666}, {"type": "position", "time": 46459, "x": null, "y": 0.6666666666666666}, {"type": "position", "time": 46522, "x": null, "y": 0.6666666666666666}, {"type": "position", "time": 46568, "x": null, "y": 0.6666666666666666}, {"type": "position", "time": 46615, "x": null, "y": 0.6666666666666666}, {"type": "position", "time": 46662, "x": null, "y": 0.6666666666666666}, {"type": "position", "time": 46714, "x": null, "y": 0.6666666666666666}, {"type": "position", "time": 46761, "x": null, "y": 0.6666666666666666}, {"type": "position", "time": 46809, "x": null, "y": 0.6666666666666666}, {"type": "position", "time": 46872, "x": null, "y": 0.6666666666666666}, {"type": "position", "time": 46919, "x": null, "y": 0.6666666666666666}, {"type": "position", "time": 46965, "x": null, "y": 0.6666666666666666}, {"type": "position", "time": 47012, "x": null, "y": 0.6666666666666666}, {"type": "position", "time": 47059, "x": null, "y": 0.6666666666666666}, {"type": "position", "time": 47121, "x": null, "y": 0.6666666666666666}, {"type": "position", "time": 47168, "x": null, "y": 0.6666666666666666}, {"type": "position", "time": 47215, "x": null, "y": 0.6666666666666666}, {"type": "position", "time": 47262, "x": null, "y": 0.6666666666666666}, {"type": "position", "time": 47309, "x": null, "y": 0.6666666666666666}, {"type": "position", "time": 47366, "x": null, "y": 0.6666666666666666}, {"type": "position", "time": 47413, "x": null, "y": 0.6666666666666666}, {"type": "position", "time": 47460, "x": null, "y": 0.6666666666666666}, {"type": "position", "time": 47507, "x": null, "y": 0.6666666666666666}, {"type": "position", "time": 47569, "x": null, "y": 0.6666666666666666}, {"type": "position", "time": 47616, "x": null, "y": 0.6666666666666666}, {"type": "position", "time": 47663, "x": null, "y": 0.6666666666666666}, {"type": "position", "time": 47710, "x": null, "y": 0.6666666666666666}, {"type": "position", "time": 47772, "x": null, "y": 0.6666666666666666}, {"type": "position", "time": 47819, "x": null, "y": 0.6666666666666666}, {"type": "position", "time": 47866, "x": null, "y": 0.6666666666666666}, {"type": "position", "time": 47912, "x": null, "y": 0.6666666666666666}, {"type": "position", "time": 47959, "x": null, "y": 0.6666666666666666}, {"type": "position", "time": 48022, "x": null, "y": 0.6666666666666666}, {"type": "position", "time": 48068, "x": null, "y": 0.6666666666666666}, {"type": "position", "time": 48115, "x": null, "y": 0.6666666666666666}, {"type": "position", "time": 48162, "x": null, "y": 0.6666666666666666}, {"type": "position", "time": 48209, "x": null, "y": 0.6666666666666666}, {"type": "position", "time": 48271, "x": null, "y": 0.6666666666666666}, {"type": "position", "time": 48318, "x": null, "y": 0.6666666666666666}, {"type": "position", "time": 48360, "x": null, "y": 0.6666666666666666}, {"type": "position", "time": 48407, "x": null, "y": 0.6666666666666666}, {"type": "position", "time": 48469, "x": null, "y": 0.6666666666666666}, {"type": "position", "time": 48516, "x": null, "y": 0.6666666666666666}, {"type": "position", "time": 48563, "x": null, "y": 0.6666666666666666}, {"type": "position", "time": 48609, "x": null, "y": 0.6666666666666666}, {"type": "position", "time": 48656, "x": null, "y": 0.6666666666666666}, {"type": "position", "time": 48721, "x": null, "y": 0.6666666666666666}, {"type": "position", "time": 48767, "x": null, "y": 0.6666666666666666}, {"type": "position", "time": 48814, "x": null, "y": 0.6666666666666666}, {"type": "position", "time": 48861, "x": null, "y": 0.6666666666666666}, {"type": "position", "time": 48908, "x": null, "y": 0.6666666666666666}, {"type": "position", "time": 48970, "x": null, "y": 0.6666666666666666}, {"type": "position", "time": 49017, "x": null, "y": 0.6666666666666666}, {"type": "position", "time": 49064, "x": null, "y": 0.6666666666666666}, {"type": "position", "time": 49111, "x": null, "y": 0.6666666666666666}, {"type": "position", "time": 49157, "x": null, "y": 0.6666666666666666}, {"type": "position", "time": 49220, "x": null, "y": 0.6666666666666666}, {"type": "position", "time": 49267, "x": null, "y": 0.6666666666666666}, {"type": "position", "time": 49313, "x": null, "y": 0.6666666666666666}, {"type": "position", "time": 49360, "x": null, "y": 0.6666666666666666}, {"type": "position", "time": 49407, "x": null, "y": 0.6666666666666666}, {"type": "position", "time": 49469, "x": null, "y": 0.6666666666666666}, {"type": "position", "time": 49516, "x": null, "y": 0.6666666666666666}, {"type": "position", "time": 49563, "x": null, "y": 0.6666666666666666}, {"type": "position", "time": 49610, "x": null, "y": 0.6666666666666666}, {"type": "position", "time": 49656, "x": null, "y": 0.6666666666666666}, {"type": "position", "time": 49719, "x": null, "y": 0.6666666666666666}, {"type": "position", "time": 49766, "x": null, "y": 0.6666666666666666}, {"type": "position", "time": 49812, "x": null, "y": 0.6666666666666666}, {"type": "position", "time": 49859, "x": null, "y": 0.6666666666666666}, {"type": "position", "time": 49922, "x": null, "y": 0.6666666666666666}, {"type": "position", "time": 49968, "x": null, "y": 0.6666666666666666}, {"type": "position", "time": 50015, "x": null, "y": 0.6666666666666666}, {"type": "position", "time": 50062, "x": null, "y": 0.6666666666666666}, {"type": "position", "time": 50109, "x": null, "y": 0.6666666666666666}, {"type": "position", "time": 50171, "x": null, "y": 0.6666666666666666}, {"type": "position", "time": 50218, "x": null, "y": 0.6666666666666666}, {"type": "position", "time": 50265, "x": null, "y": 0.6666666666666666}, {"type": "position", "time": 50312, "x": null, "y": 0.6666666666666666}, {"type": "position", "time": 50357, "x": null, "y": 0.6666666666666666}, {"type": "position", "time": 50416, "x": null, "y": 0.6666666666666666}, {"type": "position", "time": 50462, "x": null, "y": 0.6666666666666666}, {"type": "position", "time": 50509, "x": null, "y": 0.6666666666666666}, {"type": "position", "time": 50572, "x": null, "y": 0.6666666666666666}, {"type": "position", "time": 50618, "x": null, "y": 0.6666666666666666}, {"type": "position", "time": 50665, "x": null, "y": 0.6666666666666666}, {"type": "position", "time": 50712, "x": null, "y": 0.6666666666666666}, {"type": "position", "time": 50759, "x": null, "y": 0.6666666666666666}, {"type": "position", "time": 50821, "x": null, "y": 0.6666666666666666}, {"type": "position", "time": 50868, "x": null, "y": 0.6666666666666666}, {"type": "position", "time": 50915, "x": null, "y": 0.6666666666666666}, {"type": "position", "time": 50962, "x": null, "y": 0.6666666666666666}, {"type": "position", "time": 51008, "x": null, "y": 0.6666666666666666}, {"type": "position", "time": 51071, "x": null, "y": 0.6666666666666666}, {"type": "position", "time": 51118, "x": null, "y": 0.6666666666666666}, {"type": "position", "time": 51164, "x": null, "y": 0.6666666666666666}, {"type": "position", "time": 51211, "x": null, "y": 0.6666666666666666}, {"type": "position", "time": 51258, "x": null, "y": 0.6666666666666666}, {"type": "position", "time": 51320, "x": null, "y": 0.6666666666666666}, {"type": "position", "time": 51357, "x": null, "y": 0.6666666666666666}, {"type": "position", "time": 51415, "x": null, "y": 0.6666666666666666}, {"type": "position", "time": 51462, "x": null, "y": 0.6666666666666666}, {"type": "position", "time": 51509, "x": null, "y": 0.6666666666666666}, {"type": "position", "time": 51571, "x": null, "y": 0.6666666666666666}, {"type": "position", "time": 51618, "x": null, "y": 0.6666666666666666}, {"type": "position", "time": 51665, "x": null, "y": 0.6666666666666666}, {"type": "position", "time": 51712, "x": null, "y": 0.6666666666666666}, {"type": "position", "time": 51759, "x": null, "y": 0.6666666666666666}, {"type": "position", "time": 51821, "x": null, "y": 0.6666666666666666}, {"type": "position", "time": 51868, "x": null, "y": 0.6666666666666666}, {"type": "position", "time": 51915, "x": null, "y": 0.6666666666666666}, {"type": "position", "time": 51961, "x": null, "y": 0.6666666666666666}, {"type": "position", "time": 52010, "x": null, "y": 0.6666666666666666}, {"type": "position", "time": 52057, "x": null, "y": 0.6666666666666666}, {"type": "position", "time": 52119, "x": null, "y": 0.6666666666666666}, {"type": "position", "time": 52166, "x": null, "y": 0.6666666666666666}, {"type": "position", "time": 52213, "x": null, "y": 0.6666666666666666}, {"type": "position", "time": 52260, "x": null, "y": 0.6666666666666666}, {"type": "position", "time": 52322, "x": null, "y": 0.6666666666666666}, {"type": "position", "time": 52357, "x": null, "y": 0.6666666666666666}, {"type": "position", "time": 52416, "x": null, "y": 0.6666666666666666}, {"type": "position", "time": 52463, "x": null, "y": 0.6666666666666666}, {"type": "position", "time": 52510, "x": null, "y": 0.6666666666666666}, {"type": "position", "time": 52572, "x": null, "y": 0.6666666666666666}, {"type": "position", "time": 52619, "x": null, "y": 0.6666666666666666}, {"type": "position", "time": 52666, "x": null, "y": 0.6666666666666666}, {"type": "position", "time": 52713, "x": null, "y": 0.6666666666666666}, {"type": "position", "time": 52760, "x": null, "y": 0.6666666666666666}, {"type": "position", "time": 52807, "x": null, "y": 0.6666666666666666}, {"type": "position", "time": 52870, "x": null, "y": 0.6666666666666666}, {"type": "position", "time": 52916, "x": null, "y": 0.6666666666666666}, {"type": "position", "time": 52963, "x": null, "y": 0.6666666666666666}, {"type": "position", "time": 53010, "x": null, "y": 0.6666666666666666}, {"type": "position", "time": 53057, "x": null, "y": 0.6666666666666666}, {"type": "position", "time": 53119, "x": null, "y": 0.6666666666666666}, {"type": "position", "time": 53166, "x": null, "y": 0.6666666666666666}, {"type": "position", "time": 53213, "x": null, "y": 0.6666666666666666}, {"type": "position", "time": 53260, "x": null, "y": 0.6666666666666666}, {"type": "position", "time": 53322, "x": null, "y": 0.6666666666666666}, {"type": "position", "time": 53357, "x": null, "y": 0.6666666666666666}, {"type": "position", "time": 53416, "x": null, "y": 0.6666666666666666}, {"type": "position", "time": 53463, "x": null, "y": 0.6666666666666666}, {"type": "position", "time": 53510, "x": null, "y": 0.6666666666666666}, {"type": "position", "time": 53572, "x": null, "y": 0.6666666666666666}, {"type": "position", "time": 53619, "x": null, "y": 0.6666666666666666}, {"type": "position", "time": 53666, "x": null, "y": 0.6666666666666666}, {"type": "position", "time": 53712, "x": null, "y": 0.6666666666666666}, {"type": "position", "time": 53759, "x": null, "y": 0.6666666666666666}, {"type": "position", "time": 53822, "x": null, "y": 0.6666666666666666}, {"type": "position", "time": 53868, "x": null, "y": 0.6666666666666666}, {"type": "position", "time": 53915, "x": null, "y": 0.6666666666666666}, {"type": "position", "time": 53962, "x": null, "y": 0.6666666666666666}, {"type": "position", "time": 54009, "x": null, "y": 0.6666666666666666}, {"type": "position", "time": 54071, "x": null, "y": 0.6666666666666666}, {"type": "position", "time": 54118, "x": null, "y": 0.6666666666666666}, {"type": "position", "time": 54165, "x": null, "y": 0.6666666666666666}, {"type": "position", "time": 54212, "x": null, "y": 0.6666666666666666}, {"type": "position", "time": 54258, "x": null, "y": 0.6666666666666666}, {"type": "position", "time": 54321, "x": null, "y": 0.6666666666666666}, {"type": "position", "time": 54369, "x": null, "y": 0.6666666666666666}, {"type": "position", "time": 54409, "x": null, "y": 0.6666666666666666}, {"type": "position", "time": 54472, "x": null, "y": 0.6666666666666666}, {"type": "position", "time": 54519, "x": null, "y": 0.6666666666666666}, {"type": "position", "time": 54565, "x": null, "y": 0.6666666666666666}, {"type": "position", "time": 54612, "x": null, "y": 0.6666666666666666}, {"type": "position", "time": 54659, "x": null, "y": 0.6666666666666666}, {"type": "position", "time": 54721, "x": null, "y": 0.6666666666666666}, {"type": "position", "time": 54768, "x": null, "y": 0.6666666666666666}, {"type": "position", "time": 54815, "x": null, "y": 0.6666666666666666}, {"type": "position", "time": 54862, "x": null, "y": 0.6666666666666666}, {"type": "position", "time": 54909, "x": null, "y": 0.6666666666666666}, {"type": "position", "time": 54971, "x": null, "y": 0.6666666666666666}, {"type": "position", "time": 55018, "x": null, "y": 0.6666666666666666}, {"type": "position", "time": 55065, "x": null, "y": 0.6666666666666666}, {"type": "position", "time": 55111, "x": null, "y": 0.6666666666666666}, {"type": "position", "time": 55158, "x": null, "y": 0.6666666666666666}, {"type": "position", "time": 55221, "x": null, "y": 0.6666666666666666}, {"type": "position", "time": 55267, "x": null, "y": 0.6666666666666666}, {"type": "position", "time": 55314, "x": null, "y": 0.6666666666666666}, {"type": "position", "time": 55361, "x": null, "y": 0.6666666666666666}, {"type": "position", "time": 55422, "x": null, "y": 0.6666666666666666}, {"type": "position", "time": 55469, "x": null, "y": 0.6666666666666666}, {"type": "position", "time": 55515, "x": null, "y": 0.6666666666666666}, {"type": "position", "time": 55562, "x": null, "y": 0.6666666666666666}, {"type": "position", "time": 55609, "x": null, "y": 0.6666666666666666}, {"type": "position", "time": 55671, "x": null, "y": 0.6666666666666666}, {"type": "position", "time": 55720, "x": null, "y": 0.6666666666666666}, {"type": "position", "time": 55767, "x": null, "y": 0.6666666666666666}, {"type": "position", "time": 55814, "x": null, "y": 0.6666666666666666}, {"type": "position", "time": 55861, "x": null, "y": 0.6666666666666666}, {"type": "position", "time": 55907, "x": null, "y": 0.6666666666666666}, {"type": "position", "time": 55970, "x": null, "y": 0.6666666666666666}, {"type": "position", "time": 56017, "x": null, "y": 0.6666666666666666}, {"type": "position", "time": 56063, "x": null, "y": 0.6666666666666666}, {"type": "position", "time": 56110, "x": null, "y": 0.6666666666666666}, {"type": "position", "time": 56157, "x": null, "y": 0.6666666666666666}, {"type": "position", "time": 56219, "x": null, "y": 0.6666666666666666}, {"type": "position", "time": 56266, "x": null, "y": 0.6666666666666666}, {"type": "position", "time": 56313, "x": null, "y": 0.6666666666666666}, {"type": "position", "time": 56360, "x": null, "y": 0.6666666666666666}, {"type": "position", "time": 56418, "x": null, "y": 0.6666666666666666}, {"type": "position", "time": 56464, "x": null, "y": 0.6666666666666666}, {"type": "position", "time": 56511, "x": null, "y": 0.6666666666666666}, {"type": "position", "time": 56558, "x": null, "y": 0.6666666666666666}, {"type": "position", "time": 56620, "x": null, "y": 0.6666666666666666}, {"type": "position", "time": 56667, "x": null, "y": 0.6666666666666666}, {"type": "position", "time": 56714, "x": null, "y": 0.6666666666666666}, {"type": "position", "t