{"ApprovalTime": "2016-03-10T21:07:20Z", "SubmitTime": "2016-03-10T21:06:30Z", "AssignmentId": "3EO896NRAWVI9JXO3XIVJ1N93S8TJY", "HITId": "38G0E1M85M53D7EEUOHN21OJ7HQVU5", "answers": {"data": {"trials": [{"story": "coffee", "time": 908501, "name": "Timothy", "rt": 137024, "blocknum": 0, "qtype": "probability", "response": 0.88, "trialnum": 1, "gender": "male", "qnum": 0}, {"story": "coffee", "time": 908501, "name": "Timothy", "rt": 137024, "blocknum": 0, "qtype": "ungrammatical", "trialnum": 1, "gender": "male", "qnum": 0}, {"story": "coffee", "time": 934448, "name": "Victoria", "rt": 25939, "blocknum": 0, "qtype": "explanation", "response": "sometimes it makes you feel tired.", "trialnum": 2, "gender": "female", "qnum": 1}, {"story": "coffee", "time": 949173, "name": "Victoria", "rt": 14710, "blocknum": 0, "qtype": "probability", "response": 0.3, "trialnum": 3, "gender": "female", "qnum": 2}, {"story": "coffee", "time": 949173, "name": "Victoria", "rt": 14710, "blocknum": 0, "qtype": "ungrammatical", "trialnum": 3, "gender": "female", "qnum": 2}, {"story": "coffee", "time": 967617, "name": "Amy", "rt": 18436, "blocknum": 0, "qtype": "probability", "response": 0.08, "trialnum": 4, "gender": "female", "qnum": 3}, {"story": "coffee", "time": 967617, "name": "Amy", "rt": 18436, "blocknum": 0, "qtype": "ungrammatical", "response": false, "trialnum": 4, "gender": "female", "qnum": 3}, {"story": "coffee", "time": 977205, "name": "Courtney", "rt": 9583, "blocknum": 0, "qtype": "probability", "response": 0.42, "trialnum": 5, "gender": "female", "qnum": 4}, {"story": "coffee", "time": 977205, "name": "Courtney", "rt": 9583, "blocknum": 0, "qtype": "ungrammatical", "response": false, "trialnum": 5, "gender": "female", "qnum": 4}, {"story": "coffee", "time": 981767, "name": "Bradley", "rt": 4555, "blocknum": 0, "qtype": "probability", "response": 0.13, "trialnum": 6, "gender": "male", "qnum": 5}, {"story": "coffee", "time": 981767, "name": "Bradley", "rt": 4555, "blocknum": 0, "qtype": "ungrammatical", "response": false, "trialnum": 6, "gender": "male", "qnum": 5}, {"story": "beach", "time": 997483, "name": "Andrew", "rt": 15705, "blocknum": 1, "qtype": "probability", "response": 0.29, "trialnum": 8, "gender": "male", "qnum": 0}, {"story": "beach", "time": 997483, "name": "Andrew", "rt": 15705, "blocknum": 1, "qtype": "ungrammatical", "trialnum": 8, "gender": "male", "qnum": 0}, {"story": "beach", "time": 1011397, "name": "Rachel", "rt": 13911, "blocknum": 1, "qtype": "explanation", "response": "Because she wasn't interested.", "trialnum": 9, "gender": "female", "qnum": 1}, {"story": "beach", "time": 1016571, "name": "Rachel", "rt": 5165, "blocknum": 1, "qtype": "probability", "response": 0.27, "trialnum": 10, "gender": "female", "qnum": 2}, {"story": "beach", "time": 1016571, "name": "Rachel", "rt": 5165, "blocknum": 1, "qtype": "ungrammatical", "trialnum": 10, "gender": "female", "qnum": 2}, {"story": "beach", "time": 1025643, "name": "Will", "rt": 9067, "blocknum": 1, "qtype": "probability", "response": 0.12, "trialnum": 11, "gender": "male", "qnum": 3}, {"story": "beach", "time": 1025643, "name": "Will", "rt": 9067, "blocknum": 1, "qtype": "ungrammatical", "response": false, "trialnum": 11, "gender": "male", "qnum": 3}, {"story": "beach", "time": 1033970, "name": "Ashley", "rt": 8320, "blocknum": 1, "qtype": "probability", "response": 0.13, "trialnum": 12, "gender": "female", "qnum": 4}, {"story": "beach", "time": 1033970, "name": "Ashley", "rt": 8320, "blocknum": 1, "qtype": "ungrammatical", "response": false, "trialnum": 12, "gender": "female", "qnum": 4}, {"story": "beach", "time": 1041445, "name": "Connor", "rt": 7467, "blocknum": 1, "qtype": "probability", "response": 0.38, "trialnum": 13, "gender": "male", "qnum": 5}, {"story": "beach", "time": 1041445, "name": "Connor", "rt": 7467, "blocknum": 1, "qtype": "ungrammatical", "response": false, "trialnum": 13, "gender": "male", "qnum": 5}, {"story": "guitar", "time": 1052619, "name": "Madison", "rt": 11165, "blocknum": 2, "qtype": "probability", "response": 0.86, "trialnum": 15, "gender": "female", "qnum": 0}, {"story": "guitar", "time": 1052619, "name": "Madison", "rt": 11165, "blocknum": 2, "qtype": "ungrammatical", "trialnum": 15, "gender": "female", "qnum": 0}, {"story": "guitar", "time": 1066187, "name": "Erica", "rt": 13564, "blocknum": 2, "qtype": "explanation", "response": "Maybe she's not got at it.", "trialnum": 16, "gender": "female", "qnum": 1}, {"story": "guitar", "time": 1070908, "name": "Erica", "rt": 4714, "blocknum": 2, "qtype": "probability", "response": 0.71, "trialnum": 17, "gender": "female", "qnum": 2}, {"story": "guitar", "time": 1070908, "name": "Erica", "rt": 4714, "blocknum": 2, "qtype": "ungrammatical", "trialnum": 17, "gender": "female", "qnum": 2}, {"story": "guitar", "time": 1081477, "name": "Crystal", "rt": 10564, "blocknum": 2, "qtype": "probability", "response": 0.74, "trialnum": 18, "gender": "female", "qnum": 3}, {"story": "guitar", "time": 1081477, "name": "Crystal", "rt": 10564, "blocknum": 2, "qtype": "ungrammatical", "response": false, "trialnum": 18, "gender": "female", "qnum": 3}, {"story": "guitar", "time": 1089135, "name": "Jenna", "rt": 7654, "blocknum": 2, "qtype": "probability", "response": 0.6, "trialnum": 19, "gender": "female", "qnum": 4}, {"story": "guitar", "time": 1089135, "name": "Jenna", "rt": 7654, "blocknum": 2, "qtype": "ungrammatical", "response": false, "trialnum": 19, "gender": "female", "qnum": 4}, {"story": "guitar", "time": 1092957, "name": "Mark", "rt": 3816, "blocknum": 2, "qtype": "probability", "response": 0.69, "trialnum": 20, "gender": "male", "qnum": 5}, {"story": "guitar", "time": 1092957, "name": "Mark", "rt": 3816, "blocknum": 2, "qtype": "ungrammatical", "response": false, "trialnum": 20, "gender": "male", "qnum": 5}, {"story": "insomnia", "time": 1102303, "name": "Paul", "rt": 9340, "blocknum": 3, "qtype": "probability", "response": 0.77, "trialnum": 22, "gender": "male", "qnum": 0}, {"story": "insomnia", "time": 1102303, "name": "Paul", "rt": 9340, "blocknum": 3, "qtype": "ungrammatical", "trialnum": 22, "gender": "male", "qnum": 0}, {"story": "insomnia", "time": 1114735, "name": "Alyssa", "rt": 12429, "blocknum": 3, "qtype": "explanation", "response": "Because she was tired.", "trialnum": 23, "gender": "female", "qnum": 1}, {"story": "insomnia", "time": 1121209, "name": "Alyssa", "rt": 6465, "blocknum": 3, "qtype": "probability", "response": 0.24, "trialnum": 24, "gender": "female", "qnum": 2}, {"story": "insomnia", "time": 1121209, "name": "Alyssa", "rt": 6465, "blocknum": 3, "qtype": "ungrammatical", "trialnum": 24, "gender": "female", "qnum": 2}, {"story": "insomnia", "time": 1144787, "name": "John", "rt": 23572, "blocknum": 3, "qtype": "probability", "response": 0.33, "trialnum": 25, "gender": "male", "qnum": 3}, {"story": "insomnia", "time": 1144787, "name": "John", "rt": 23572, "blocknum": 3, "qtype": "ungrammatical", "response": false, "trialnum": 25, "gender": "male", "qnum": 3}, {"story": "insomnia", "time": 1153948, "name": "Amber", "rt": 9155, "blocknum": 3, "qtype": "probability", "response": 0.41, "trialnum": 26, "gender": "female", "qnum": 4}, {"story": "insomnia", "time": 1153948, "name": "Amber", "rt": 9155, "blocknum": 3, "qtype": "ungrammatical", "response": false, "trialnum": 26, "gender": "female", "qnum": 4}, {"story": "insomnia", "time": 1158348, "name": "Dylan", "rt": 4394, "blocknum": 3, "qtype": "probability", "response": 0.2, "trialnum": 27, "gender": "male", "qnum": 5}, {"story": "insomnia", "time": 1158348, "name": "Dylan", "rt": 4394, "blocknum": 3, "qtype": "ungrammatical", "response": false, "trialnum": 27, "gender": "male", "qnum": 5}, {"story": "reading", "time": 1172486, "name": "Michael", "rt": 14131, "blocknum": 4, "qtype": "probability", "response": 0.75, "trialnum": 29, "gender": "male", "qnum": 0}, {"story": "reading", "time": 1172486, "name": "Michael", "rt": 14131, "blocknum": 4, "qtype": "ungrammatical", "trialnum": 29, "gender": "male", "qnum": 0}, {"story": "reading", "time": 1184692, "name": "Evan", "rt": 12203, "blocknum": 4, "qtype": "explanation", "response": "It takes time.", "trialnum": 30, "gender": "male", "qnum": 1}, {"story": "reading", "time": 1191528, "name": "Evan", "rt": 6827, "blocknum": 4, "qtype": "probability", "response": 0.74, "trialnum": 31, "gender": "male", "qnum": 2}, {"story": "reading", "time": 1191528, "name": "Evan", "rt": 6827, "blocknum": 4, "qtype": "ungrammatical", "trialnum": 31, "gender": "male", "qnum": 2}, {"story": "reading", "time": 1200445, "name": "Destiny", "rt": 8912, "blocknum": 4, "qtype": "probability", "response": 0.39, "trialnum": 32, "gender": "female", "qnum": 3}, {"story": "reading", "time": 1200445, "name": "Destiny", "rt": 8912, "blocknum": 4, "qtype": "ungrammatical", "response": false, "trialnum": 32, "gender": "female", "qnum": 3}, {"story": "reading", "time": 1203714, "name": "Jared", "rt": 3262, "blocknum": 4, "qtype": "probability", "response": 0.33, "trialnum": 33, "gender": "male", "qnum": 4}, {"story": "reading", "time": 1203714, "name": "Jared", "rt": 3262, "blocknum": 4, "qtype": "ungrammatical", "response": false, "trialnum": 33, "gender": "male", "qnum": 4}, {"story": "reading", "time": 1206667, "name": "Brandon", "rt": 2947, "blocknum": 4, "qtype": "probability", "response": 0.43, "trialnum": 34, "gender": "male", "qnum": 5}, {"story": "reading", "time": 1206667, "name": "Brandon", "rt": 2947, "blocknum": 4, "qtype": "ungrammatical", "response": false, "trialnum": 34, "gender": "male", "qnum": 5}, {"story": "cooking", "time": 1220520, "name": "Alexis", "rt": 13845, "blocknum": 5, "qtype": "probability", "response": 0.69, "trialnum": 36, "gender": "female", "qnum": 0}, {"story": "cooking", "time": 1220520, "name": "Alexis", "rt": 13845, "blocknum": 5, "qtype": "ungrammatical", "trialnum": 36, "gender": "female", "qnum": 0}, {"story": "cooking", "time": 1243670, "name": "Erin", "rt": 23147, "blocknum": 5, "qtype": "explanation", "response": "It takes a lot practice.", "trialnum": 37, "gender": "female", "qnum": 1}, {"story": "cooking", "time": 1246649, "name": "Erin", "rt": 2974, "blocknum": 5, "qtype": "probability", "response": 0.7, "trialnum": 38, "gender": "female", "qnum": 2}, {"story": "cooking", "time": 1246649, "name": "Erin", "rt": 2974, "blocknum": 5, "qtype": "ungrammatical", "trialnum": 38, "gender": "female", "qnum": 2}, {"story": "cooking", "time": 1252410, "name": "Kristen", "rt": 5753, "blocknum": 5, "qtype": "probability", "response": 0.73, "trialnum": 39, "gender": "female", "qnum": 3}, {"story": "cooking", "time": 1252410, "name": "Kristen", "rt": 5753, "blocknum": 5, "qtype": "ungrammatical", "response": false, "trialnum": 39, "gender": "female", "qnum": 3}, {"story": "cooking", "time": 1254276, "name": "Adam", "rt": 1860, "blocknum": 5, "qtype": "probability", "response": 0.82, "trialnum": 40, "gender": "male", "qnum": 4}, {"story": "cooking", "time": 1254276, "name": "Adam", "rt": 1860, "blocknum": 5, "qtype": "ungrammatical", "response": false, "trialnum": 40, "gender": "male", "qnum": 4}, {"story": "cooking", "time": 1258021, "name": "Jeff", "rt": 3741, "blocknum": 5, "qtype": "probability", "response": 0.69, "trialnum": 41, "gender": "male", "qnum": 5}, {"story": "cooking", "time": 1258021, "name": "Jeff", "rt": 3741, "blocknum": 5, "qtype": "ungrammatical", "response": false, "trialnum": 41, "gender": "male", "qnum": 5}, {"story": "painting", "time": 1263609, "name": "Lauren", "rt": 5581, "blocknum": 6, "qtype": "probability", "response": 0.47, "trialnum": 43, "gender": "female", "qnum": 0}, {"story": "painting", "time": 1263609, "name": "Lauren", "rt": 5581, "blocknum": 6, "qtype": "ungrammatical", "trialnum": 43, "gender": "female", "qnum": 0}, {"story": "painting", "time": 1274916, "name": "Nicole", "rt": 11304, "blocknum": 6, "qtype": "explanation", "response": "She's not good.", "trialnum": 44, "gender": "female", "qnum": 1}, {"story": "painting", "time": 1278562, "name": "Nicole", "rt": 3641, "blocknum": 6, "qtype": "probability", "response": 0.65, "trialnum": 45, "gender": "female", "qnum": 2}, {"story": "painting", "time": 1278562, "name": "Nicole", "rt": 3641, "blocknum": 6, "qtype": "ungrammatical", "trialnum": 45, "gender": "female", "qnum": 2}, {"story": "painting", "time": 1290662, "name": "Jason", "rt": 12094, "blocknum": 6, "qtype": "probability", "response": 0.41, "trialnum": 46, "gender": "male", "qnum": 3}, {"story": "painting", "time": 1290662, "name": "Jason", "rt": 12094, "blocknum": 6, "qtype": "ungrammatical", "response": false, "trialnum": 46, "gender": "male", "qnum": 3}, {"story": "painting", "time": 1295330, "name": "Travis", "rt": 4663, "blocknum": 6, "qtype": "probability", "response": 0.59, "trialnum": 47, "gender": "male", "qnum": 4}, {"story": "painting", "time": 1295330, "name": "Travis", "rt": 4663, "blocknum": 6, "qtype": "ungrammatical", "response": false, "trialnum": 47, "gender": "male", "qnum": 4}, {"story": "painting", "time": 1301140, "name": "Scott", "rt": 5806, "blocknum": 6, "qtype": "probability", "response": 0.69, "trialnum": 48, "gender": "male", "qnum": 5}, {"story": "painting", "time": 1301140, "name": "Scott", "rt": 5806, "blocknum": 6, "qtype": "ungrammatical", "response": false, "trialnum": 48, "gender": "male", "qnum": 5}, {"story": "fitness", "time": 1315654, "name": "Gabrielle", "rt": 14509, "blocknum": 7, "qtype": "probability", "response": 0.51, "trialnum": 50, "gender": "female", "qnum": 0}, {"story": "fitness", "time": 1315654, "name": "Gabrielle", "rt": 14509, "blocknum": 7, "qtype": "ungrammatical", "trialnum": 50, "gender": "female", "qnum": 0}, {"story": "fitness", "time": 1334855, "name": "Corey", "rt": 19198, "blocknum": 7, "qtype": "explanation", "response": "His body is different.", "trialnum": 51, "gender": "male", "qnum": 1}, {"story": "fitness", "time": 1338491, "name": "Corey", "rt": 3630, "blocknum": 7, "qtype": "probability", "response": 0.35, "trialnum": 52, "gender": "male", "qnum": 2}, {"story": "fitness", "time": 1338491, "name": "Corey", "rt": 3630, "blocknum": 7, "qtype": "ungrammatical", "trialnum": 52, "gender": "male", "qnum": 2}, {"story": "fitness", "time": 1342932, "name": "Charles", "rt": 4435, "blocknum": 7, "qtype": "probability", "response": 0.56, "trialnum": 53, "gender": "male", "qnum": 3}, {"story": "fitness", "time": 1342932, "name": "Charles", "rt": 4435, "blocknum": 7, "qtype": "ungrammatical", "response": false, "trialnum": 53, "gender": "male", "qnum": 3}, {"story": "fitness", "time": 1347127, "name": "Daniel", "rt": 4190, "blocknum": 7, "qtype": "probability", "response": 0.62, "trialnum": 54, "gender": "male", "qnum": 4}, {"story": "fitness", "time": 1347127, "name": "Daniel", "rt": 4190, "blocknum": 7, "qtype": "ungrammatical", "response": false, "trialnum": 54, "gender": "male", "qnum": 4}, {"story": "fitness", "time": 1349817, "name": "Justin", "rt": 2685, "blocknum": 7, "qtype": "probability", "response": 0.74, "trialnum": 55, "gender": "male", "qnum": 5}, {"story": "fitness", "time": 1349817, "name": "Justin", "rt": 2685, "blocknum": 7, "qtype": "ungrammatical", "response": false, "trialnum": 55, "gender": "male", "qnum": 5}, {"story": "Japan", "time": 1357912, "name": "Vanessa", "rt": 8090, "blocknum": 8, "qtype": "probability", "response": 0.42, "trialnum": 57, "gender": "female", "qnum": 0}, {"story": "Japan", "time": 1357912, "name": "Vanessa", "rt": 8090, "blocknum": 8, "qtype": "ungrammatical", "trialnum": 57, "gender": "female", "qnum": 0}, {"story": "Japan", "time": 1380525, "name": "Joseph", "rt": 22611, "blocknum": 8, "qtype": "explanation", "response": "He's in the wrong part of town.", "trialnum": 58, "gender": "male", "qnum": 1}, {"story": "Japan", "time": 1385083, "name": "Joseph", "rt": 4548, "blocknum": 8, "qtype": "probability", "response": 0.51, "trialnum": 59, "gender": "male", "qnum": 2}, {"story": "Japan", "time": 1385083, "name": "Joseph", "rt": 4548, "blocknum": 8, "qtype": "ungrammatical", "trialnum": 59, "gender": "male", "qnum": 2}, {"story": "Japan", "time": 1389586, "name": "Miranda", "rt": 4498, "blocknum": 8, "qtype": "probability", "response": 0.63, "trialnum": 60, "gender": "female", "qnum": 3}, {"story": "Japan", "time": 1389586, "name": "Miranda", "rt": 4498, "blocknum": 8, "qtype": "ungrammatical", "response": false, "trialnum": 60, "gender": "female", "qnum": 3}, {"story": "Japan", "time": 1391708, "name": "Chelsea", "rt": 2118, "blocknum": 8, "qtype": "probability", "response": 0.75, "trialnum": 61, "gender": "female", "qnum": 4}, {"story": "Japan", "time": 1391708, "name": "Chelsea", "rt": 2118, "blocknum": 8, "qtype": "ungrammatical", "response": false, "trialnum": 61, "gender": "female", "qnum": 4}, {"story": "Japan", "time": 1394748, "name": "Savannah", "rt": 3035, "blocknum": 8, "qtype": "probability", "response": 0.67, "trialnum": 62, "gender": "female", "qnum": 5}, {"story": "Japan", "time": 1394748, "name": "Savannah", "rt": 3035, "blocknum": 8, "qtype": "ungrammatical", "response": false, "trialnum": 62, "gender": "female", "qnum": 5}], "events": [{"type": "position", "time": 58, "x": 0, "y": 0}, {"type": "position", "time": 107, "x": 0, "y": 0}, {"type": "position", "time": 162, "x": 0, "y": 0}, {"type": "position", "time": 208, "x": 0, "y": 0}, {"type": "position", "time": 258, "x": 0, "y": 0}, {"type": "position", "time": 308, "x": 0, "y": 0}, {"type": "position", "time": 358, "x": 0, "y": 0}, {"type": "position", "time": 408, "x": 0, "y": 0}, {"type": "position", "time": 458, "x": 0, "y": 0}, {"type": "position", "time": 508, "x": 0, "y": 0}, {"type": "position", "time": 558, "x": 0, "y": 0}, {"type": "position", "time": 608, "x": 0, "y": 0}, {"type": "position", "time": 669, "x": 0, "y": 0}, {"type": "position", "time": 719, "x": 0, "y": 0}, {"type": "position", "time": 769, "x": 0, "y": 0}, {"type": "position", "time": 902, "x": 0, "y": 0}, {"type": "position", "time": 1902, "x": 0, "y": 0}, {"type": "position", "time": 2770, "x": 0, "y": 0}, {"type": "position", "time": 2808, "x": 0, "y": 0}, {"type": "position", "time": 2858, "x": 0, "y": 0}, {"type": "position", "time": 2908, "x": 0, "y": 0}, {"type": "position", "time": 2958, "x": 0, "y": 0}, {"type": "position", "time": 3008, "x": 0, "y": 0}, {"type": "position", "time": 3058, "x": 0, "y": 0}, {"type": "position", "time": 3107, "x": 0, "y": 0}, {"type": "position", "time": 3158, "x": 0, "y": 0}, {"type": "position", "time": 3207, "x": 0, "y": 0}, {"type": "position", "time": 3258, "x": 0, "y": 0}, {"type": "position", "time": 3308, "x": 0, "y": 0}, {"type": "position", "time": 3358, "x": 0, "y": 0}, {"type": "position", "time": 3408, "x": 0, "y": 0}, {"type": "position", "time": 3458, "x": 0, "y": 0}, {"type": "position", "time": 3508, "x": 0, "y": 0}, {"type": "position", "time": 3558, "x": 0, "y": 0}, {"type": "position", "time": 3608, "x": 0, "y": 0}, {"type": "position", "time": 3658, "x": 0, "y": 0}, {"type": "position", "time": 3708, "x": 0, "y": 0}, {"type": "position", "time": 3758, "x": 0, "y": 0}, {"type": "position", "time": 3808, "x": 0, "y": 0}, {"type": "position", "time": 3857, "x": 0, "y": 0}, {"type": "position", "time": 3907, "x": 0, "y": 0}, {"type": "position", "time": 3958, "x": 0, "y": 0}, {"type": "position", "time": 4008, "x": 0, "y": 0}, {"type": "position", "time": 4057, "x": 0, "y": 0}, {"type": "position", "time": 4108, "x": 0, "y": 0}, {"type": "position", "time": 4158, "x": 0, "y": 0}, {"type": "position", "time": 4902, "x": 0, "y": 0}, {"type": "position", "time": 5901, "x": 0, "y": 0}, {"type": "position", "time": 6902, "x": 0, "y": 0}, {"type": "position", "time": 7893, "x": 0, "y": 0}, {"type": "position", "time": 8898, "x": 0, "y": 0}, {"type": "position", "time": 9903, "x": 0, "y": 0}, {"type": "position", "time": 10904, "x": 0, "y": 0}, {"type": "position", "time": 11913, "x": 0, "y": 0}, {"type": "position", "time": 12901, "x": 0, "y": 0}, {"type": "position", "time": 13902, "x": 0, "y": 0}, {"type": "position", "time": 14901, "x": 0, "y": 0}, {"type": "position", "time": 15901, "x": 0, "y": 0}, {"type": "position", "time": 16901, "x": 0, "y": 0}, {"type": "position", "time": 17901, "x": 0, "y": 0}, {"type": "position", "time": 18904, "x": 0, "y": 0}, {"type": "position", "time": 19902, "x": 0, "y": 0}, {"type": "position", "time": 20713, "x": 0, "y": 0}, {"type": "position", "time": 20760, "x": 0, "y": 0}, {"type": "position", "time": 20808, "x": 0, "y": 0}, {"type": "position", "time": 20862, "x": 0, "y": 0}, {"type": "position", "time": 20908, "x": 0, "y": 0}, {"type": "position", "time": 20960, "x": 0, "y": 0}, {"type": "position", "time": 21007, "x": 0, "y": 0}, {"type": "position", "time": 21060, "x": 0, "y": 0}, {"type": "position", "time": 21108, "x": 0, "y": 0}, {"type": "position", "time": 21160, "x": 0, "y": 0}, {"type": "position", "time": 21208, "x": 0, "y": 0}, {"type": "position", "time": 21261, "x": 0, "y": 0}, {"type": "position", "time": 21308, "x": 0, "y": 0}, {"type": "position", "time": 21358, "x": 0, "y": 0}, {"type": "position", "time": 21408, "x": 0, "y": 0}, {"type": "position", "time": 21478, "x": 0, "y": 0}, {"type": "position", "time": 21508, "x": 0, "y": 0}, {"type": "position", "time": 21560, "x": 0, "y": 0}, {"type": "position", "time": 21608, "x": 0, "y": 0}, {"type": "position", "time": 21660, "x": 0, "y": 0}, {"type": "position", "time": 21708, "x": 0, "y": 0}, {"type": "position", "time": 21758, "x": 0, "y": 0}, {"type": "position", "time": 21808, "x": 0, "y": 0}, {"type": "position", "time": 21861, "x": 0, "y": 0}, {"type": "position", "time": 21908, "x": 0, "y": 0}, {"type": "position", "time": 21960, "x": 0, "y": 0}, {"type": "position", "time": 22007, "x": 0, "y": 0}, {"type": "position", "time": 22060, "x": 0, "y": 0}, {"type": "position", "time": 22112, "x": 0, "y": 0}, {"type": "position", "time": 22162, "x": 0, "y": 0}, {"type": "position", "time": 22212, "x": 0, "y": 0}, {"type": "position", "time": 22262, "x": 0, "y": 0}, {"type": "position", "time": 22312, "x": 0, "y": 0}, {"type": "position", "time": 22362, "x": 0, "y": 0}, {"type": "position", "time": 22408, "x": 0, "y": 0}, {"type": "position", "time": 22462, "x": 0, "y": 0}, {"type": "position", "time": 22508, "x": 0, "y": 0}, {"type": "position", "time": 22572, "x": 0, "y": 0}, {"type": "position", "time": 22612, "x": 0, "y": 0}, {"type": "position", "time": 22662, "x": 0, "y": 0}, {"type": "position", "time": 22708, "x": 0, "y": 0}, {"type": "position", "time": 22762, "x": 0, "y": 0}, {"type": "position", "time": 22812, "x": 0, "y": 0}, {"type": "position", "time": 22862, "x": 0, "y": 0}, {"type": "position", "time": 22913, "x": 0, "y": 0}, {"type": "position", "time": 22962, "x": 0, "y": 0}, {"type": "position", "time": 23008, "x": 0, "y": 0}, {"type": "position", "time": 23062, "x": 0, "y": 0}, {"type": "position", "time": 23108, "x": 0, "y": 0}, {"type": "position", "time": 23162, "x": 0, "y": 0}, {"type": "position", "time": 23208, "x": 0, "y": 0}, {"type": "position", "time": 23262, "x": 0, "y": 0}, {"type": "position", "time": 23308, "x": 0, "y": 0}, {"type": "position", "time": 23362, "x": 0, "y": 0}, {"type": "position", "time": 23408, "x": 0, "y": 0}, {"type": "position", "time": 23462, "x": 0, "y": 0}, {"type": "position", "time": 23512, "x": 0, "y": 0}, {"type": "position", "time": 23562, "x": 0, "y": 0}, {"type": "position", "time": 23608, "x": 0, "y": 0}, {"type": "position", "time": 23660, "x": 0, "y": 0}, {"type": "position", "time": 23708, "x": 0, "y": 0}, {"type": "position", "time": 23760, "x": 0, "y": 0}, {"type": "position", "time": 23808, "x": 0, "y": 0}, {"type": "position", "time": 23861, "x": 0, "y": 0}, {"type": "position", "time": 23908, "x": 0, "y": 0}, {"type": "position", "time": 23960, "x": 0, "y": 0}, {"type": "position", "time": 24008, "x": 0, "y": 0}, {"type": "position", "time": 24060, "x": 0, "y": 0}, {"type": "position", "time": 24108, "x": 0, "y": 0}, {"type": "position", "time": 24160, "x": 0, "y": 0}, {"type": "position", "time": 24211, "x": 0, "y": 0}, {"type": "position", "time": 24260, "x": 0, "y": 0}, {"type": "position", "time": 24310, "x": 0, "y": 0}, {"type": "position", "time": 24360, "x": 0, "y": 0}, {"type": "position", "time": 24410, "x": 0, "y": 0}, {"type": "position", "time": 24460, "x": 0, "y": 0}, {"type": "position", "time": 24510, "x": 0, "y": 0}, {"type": "position", "time": 24561, "x": 0, "y": 0}, {"type": "position", "time": 24610, "x": 0, "y": 0}, {"type": "position", "time": 24662, "x": 0, "y": 0}, {"type": "position", "time": 24712, "x": 0, "y": 0}, {"type": "position", "time": 24762, "x": 0, "y": 0}, {"type": "position", "time": 24822, "x": 0, "y": 0}, {"type": "position", "time": 24872, "x": 0, "y": 0}, {"type": "position", "time": 24913, "x": 0, "y": 0}, {"type": "position", "time": 24961, "x": 0, "y": 0}, {"type": "position", "time": 25022, "x": 0, "y": 0}, {"type": "position", "time": 25058, "x": 0, "y": 0}, {"type": "position", "time": 25901, "x": 0, "y": 0}, {"type": "position", "time": 26676, "x": 0, "y": 0}, {"type": "position", "time": 26711, "x": 0, "y": 0}, {"type": "position", "time": 26760, "x": 0, "y": 0}, {"type": "position", "time": 26822, "x": 0, "y": 0}, {"type": "position", "time": 26872, "x": 0, "y": 0}, {"type": "position", "time": 26922, "x": 0, "y": 0}, {"type": "position", "time": 26958, "x": 0, "y": 0}, {"type": "position", "time": 27008, "x": 0, "y": 0}, {"type": "position", "time": 27060, "x": 0, "y": 0}, {"type": "position", "time": 27110, "x": 0, "y": 0}, {"type": "position", "time": 27162, "x": 0, "y": 0}, {"type": "position", "time": 27208, "x": 0, "y": 0}, {"type": "position", "time": 27260, "x": 0, "y": 0}, {"type": "position", "time": 27322, "x": 0, "y": 0}, {"type": "position", "time": 27346, "x": 0, "y": 0}, {"type": "position", "time": 27420, "x": 0, "y": 0}, {"type": "position", "time": 27460, "x": 0, "y": 0}, {"type": "position", "time": 27508, "x": 0, "y": 0}, {"type": "position", "time": 27558, "x": 0, "y": 0}, {"type": "position", "time": 27610, "x": 0, "y": 0}, {"type": "position", "time": 27658, "x": 0, "y": 0}, {"type": "position", "time": 27710, "x": 0, "y": 0}, {"type": "position", "time": 27758, "x": 0, "y": 0}, {"type": "position", "time": 27810, "x": 0, "y": 0}, {"type": "position", "time": 27858, "x": 0, "y": 0}, {"type": "position", "time": 27910, "x": 0, "y": 0}, {"type": "position", "time": 27960, "x": 0, "y": 0}, {"type": "position", "time": 28008, "x": 0, "y": 0}, {"type": "position", "time": 28058, "x": 0, "y": 0}, {"type": "position", "time": 28110, "x": 0, "y": 0}, {"type": "position", "time": 28159, "x": 0, "y": 0}, {"type": "position", "time": 28210, "x": 0, "y": 0}, {"type": "position", "time": 28270, "x": 0, "y": 0}, {"type": "position", "time": 28316, "x": 0, "y": 0}, {"type": "position", "time": 28370, "x": 0, "y": 0}, {"type": "position", "time": 28416, "x": 0, "y": 0}, {"type": "position", "time": 28902, "x": 0, "y": 0}, {"type": "position", "time": 29902, "x": 0, "y": 0}, {"type": "position", "time": 30903, "x": 0, "y": 0}, {"type": "position", "time": 31903, "x": 0, "y": 0}, {"type": "position", "time": 32901, "x": 0, "y": 0}, {"type": "position", "time": 33889, "x": 0, "y": 0}, {"type": "position", "time": 34902, "x": 0, "y": 0}, {"type": "position", "time": 35915, "x": 0, "y": 0}, {"type": "position", "time": 36905, "x": 0, "y": 0}, {"type": "position", "time": 37906, "x": 0, "y": 0}, {"type": "position", "time": 38901, "x": 0, "y": 0}, {"type": "position", "time": 39909, "x": 0, "y": 0}, {"type": "position", "time": 40901, "x": 0, "y": 0}, {"type": "position", "time": 41913, "x": 0, "y": 0}, {"type": "position", "time": 42899, "x": 0, "y": 0}, {"type": "position", "time": 43915, "x": 0, "y": 0}, {"type": "position", "time": 44901, "x": 0, "y": 0}, {"type": "position", "time": 45902, "x": 0, "y": 0}, {"type": "position", "time": 46902, "x": 0, "y": 0}, {"type": "position", "time": 47902, "x": 0, "y": 0}, {"type": "position", "time": 48902, "x": 0, "y": 0}, {"type": "position", "time": 49902, "x": 0, "y": 0}, {"type": "position", "time": 50903, "x": 0, "y": 0}, {"type": "position", "time": 51902, "x": 0, "y": 0}, {"type": "position", "time": 52902, "x": 0, "y": 0}, {"type": "position", "time": 53903, "x": 0, "y": 0}, {"type": "position", "time": 54902, "x": 0, "y": 0}, {"type": "position", "time": 55904, "x": 0, "y": 0}, {"type": "position", "time": 56904, "x": 0, "y": 0}, {"type": "position", "time": 57902, "x": 0, "y": 0}, {"type": "position", "time": 58906, "x": 0, "y": 0}, {"type": "position", "time": 59902, "x": 0, "y": 0}, {"type": "position", "time": 60917, "x": 0, "y": 0}, {"type": "position", "time": 61901, "x": 0, "y": 0}, {"type": "position", "time": 62903, "x": 0, "y": 0}, {"type": "position", "time": 63904, "x": 0, "y": 0}, {"type": "position", "time": 64916, "x": 0, "y": 0}, {"type": "position", "time": 65901, "x": 0, "y": 0}, {"type": "position", "time": 66917, "x": 0, "y": 0}, {"type": "position", "time": 67903, "x": 0, "y": 0}, {"type": "position", "time": 68903, "x": 0, "y": 0}, {"type": "position", "time": 69907, "x": 0, "y": 0}, {"type": "position", "time": 70902, "x": 0, "y": 0}, {"type": "position", "time": 71912, "x": 0, "y": 0}, {"type": "position", "time": 72913, "x": 0, "y": 0}, {"type": "position", "time": 73903, "x": 0, "y": 0}, {"type": "position", "time": 74904, "x": 0, "y": 0}, {"type": "position", "time": 75904, "x": 0, "y": 0}, {"type": "position", "time": 76903, "x": 0, "y": 0}, {"type": "position", "time": 77916, "x": 0, "y": 0}, {"type": "position", "time": 78917, "x": 0, "y": 0}, {"type": "position", "time": 79902, "x": 0, "y": 0}, {"type": "position", "time": 80902, "x": 0, "y": 0}, {"type": "position", "time": 81903, "x": 0, "y": 0}, {"type": "position", "time": 82903, "x": 0, "y": 0}, {"type": "position", "time": 83902, "x": 0, "y": 0}, {"type": "position", "time": 84902, "x": 0, "y": 0}, {"type": "position", "time": 85903, "x": 0, "y": 0}, {"type": "position", "time": 86903, "x": 0, "y": 0}, {"type": "position", "time": 87902, "x": 0, "y": 0}, {"type": "position", "time": 88902, "x": 0, "y": 0}, {"type": "position", "time": 89902, "x": 0, "y": 0}, {"type": "position", "time": 90903, "x": 0, "y": 0}, {"type": "position", "time": 91904, "x": 0, "y": 0}, {"type": "position", "time": 92902, "x": 0, "y": 0}, {"type": "position", "time": 93912, "x": 0, "y": 0}, {"type": "position", "time": 94901, "x": 0, "y": 0}, {"type": "position", "time": 95903, "x": 0, "y": 0}, {"type": "position", "time": 96914, "x": 0, "y": 0}, {"type": "position", "time": 97901, "x": 0, "y": 0}, {"type": "position", "time": 98903, "x": 0, "y": 0}, {"type": "position", "time": 99912, "x": 0, "y": 0}, {"type": "position", "time": 100902, "x": 0, "y": 0}, {"type": "position", "time": 101914, "x": 0, "y": 0}, {"type": "position", "time": 102901, "x": 0, "y": 0}, {"type": "position", "time": 103916, "x": 0, "y": 0}, {"type": "position", "time": 104901, "x": 0, "y": 0}, {"type": "position", "time": 105903, "x": 0, "y": 0}, {"type": "position", "time": 106904, "x": 0, "y": 0}, {"type": "position", "time": 107904, "x": 0, "y": 0}, {"type": "position", "time": 108902, "x": 0, "y": 0}, {"type": "position", "time": 109906, "x": 0, "y": 0}, {"type": "position", "time": 110904, "x": 0, "y": 0}, {"type": "position", "time": 111908, "x": 0, "y": 0}, {"type": "position", "time": 112909, "x": 0, "y": 0}, {"type": "position", "time": 113910, "x": 0, "y": 0}, {"type": "position", "time": 114903, "x": 0, "y": 0}, {"type": "position", "time": 115907, "x": 0, "y": 0}, {"type": "position", "time": 116912, "x": 0, "y": 0}, {"type": "position", "time": 117901, "x": 0, "y": 0}, {"type": "position", "time": 118912, "x": 0, "y": 0}, {"type": "position", "time": 119913, "x": 0, "y": 0}, {"type": "position", "time": 120914, "x": 0, "y": 0}, {"type": "position", "time": 121914, "x": 0, "y": 0}, {"type": "position", "time": 122914, "x": 0, "y": 0}, {"type": "position", "time": 123915, "x": 0, "y": 0}, {"type": "position", "time": 124915, "x": 0, "y": 0}, {"type": "position", "time": 125916, "x": 0, "y": 0}, {"type": "position", "time": 126905, "x": 0, "y": 0}, {"type": "position", "time": 127901, "x": 0, "y": 0}, {"type": "position", "time": 128903, "x": 0, "y": 0}, {"type": "position", "time": 129902, "x": 0, "y": 0}, {"type": "position", "time": 130902, "x": 0, "y": 0}, {"type": "position", "time": 131905, "x": 0, "y": 0}, {"type": "position", "time": 132905, "x": 0, "y": 0}, {"type": "position", "time": 133902, "x": 0, "y": 0}, {"type": "position", "time": 134906, "x": 0, "y": 0}, {"type": "position", "time": 135902, "x": 0, "y": 0}, {"type": "position", "time": 136903, "x": 0, "y": 0}, {"type": "position", "time": 137903, "x": 0, "y": 0}, {"type": "position", "time": 138912, "x": 0, "y": 0}, {"type": "position", "time": 139908, "x": 0, "y": 0}, {"type": "position", "time": 140903, "x": 0, "y": 0}, {"type": "position", "time": 141904, "x": 0, "y": 0}, {"type": "position", "time": 142903, "x": 0, "y": 0}, {"type": "position", "time": 143902, "x": 0, "y": 0}, {"type": "position", "time": 144906, "x": 0, "y": 0}, {"type": "position", "time": 145906, "x": 0, "y": 0}, {"type": "position", "time": 146908, "x": 0, "y": 0}, {"type": "position", "time": 147903, "x": 0, "y": 0}, {"type": "position", "time": 148903, "x": 0, "y": 0}, {"type": "position", "time": 149902, "x": 0, "y": 0}, {"type": "position", "time": 150903, "x": 0, "y": 0}, {"type": "position", "time": 151906, "x": 0, "y": 0}, {"type": "position", "time": 152905, "x": 0, "y": 0}, {"type": "position", "time": 153905, "x": 0, "y": 0}, {"type": "position", "time": 154906, "x": 0, "y": 0}, {"type": "position", "time": 155903, "x": 0, "y": 0}, {"type": "position", "time": 156904, "x": 0, "y": 0}, {"type": "position", "time": 157905, "x": 0, "y": 0}, {"type": "position", "time": 158902, "x": 0, "y": 0}, {"type": "position", "time": 159906, "x": 0, "y": 0}, {"type": "position", "time": 160904, "x": 0, "y": 0}, {"type": "position", "time": 161906, "x": 0, "y": 0}, {"type": "position", "time": 162907, "x": 0, "y": 0}, {"type": "position", "time": 163907, "x": 0, "y": 0}, {"type": "position", "time": 164902, "x": 0, "y": 0}, {"type": "position", "time": 165904, "x": 0, "y": 0}, {"type": "position", "time": 166915, "x": 0, "y": 0}, {"type": "position", "time": 167902, "x": 0, "y": 0}, {"type": "position", "time": 168903, "x": 0, "y": 0}, {"type": "position", "time": 169903, "x": 0, "y": 0}, {"type": "position", "time": 170903, "x": 0, "y": 0}, {"type": "position", "time": 171903, "x": 0, "y": 0}, {"type": "position", "time": 172902, "x": 0, "y": 0}, {"type": "position", "time": 173903, "x": 0, "y": 0}, {"type": "position", "time": 174903, "x": 0, "y": 0}, {"type": "position", "time": 175903, "x": 0, "y": 0}, {"type": "position", "time": 176909, "x": 0, "y": 0}, {"type": "position", "time": 177910, "x": 0, "y": 0}, {"type": "position", "time": 178904, "x": 0, "y": 0}, {"type": "position", "time": 179901, "x": 0, "y": 0}, {"type": "position", "time": 180902, "x": 0, "y": 0}, {"type": "position", "time": 181943, "x": 0, "y": 0}, {"type": "position", "time": 182898, "x": 0, "y": 0}, {"type": "position", "time": 183903, "x": 0, "y": 0}, {"type": "position", "time": 184904, "x": 0, "y": 0}, {"type": "position", "time": 185946, "x": 0, "y": 0}, {"type": "position", "time": 186915, "x": 0, "y": 0}, {"type": "position", "time": 187903, "x": 0, "y": 0}, {"type": "position", "time": 188912, "x": 0, "y": 0}, {"type": "position", "time": 189905, "x": 0, "y": 0}, {"type": "position", "time": 190905, "x": 0, "y": 0}, {"type": "position", "time": 191904, "x": 0, "y": 0}, {"type": "position", "time": 192904, "x": 0, "y": 0}, {"type": "position", "time": 193906, "x": 0, "y": 0}, {"type": "position", "time": 194906, "x": 0, "y": 0}, {"type": "position", "time": 195907, "x": 0, "y": 0}, {"type": "position", "time": 196907, "x": 0, "y": 0}, {"type": "position", "time": 197908, "x": 0, "y": 0}, {"type": "position", "time": 198904, "x": 0, "y": 0}, {"type": "position", "time": 199902, "x": 0, "y": 0}, {"type": "position", "time": 200905, "x": 0, "y": 0}, {"type": "position", "time": 201902, "x": 0, "y": 0}, {"type": "position", "time": 202903, "x": 0, "y": 0}, {"type": "position", "time": 203906, "x": 0, "y": 0}, {"type": "position", "time": 204912, "x": 0, "y": 0}, {"type": "position", "time": 205907, "x": 0, "y": 0}, {"type": "position", "time": 206907, "x": 0, "y": 0}, {"type": "position", "time": 207905, "x": 0, "y": 0}, {"type": "position", "time": 208902, "x": 0, "y": 0}, {"type": "position", "time": 209902, "x": 0, "y": 0}, {"type": "position", "time": 210903, "x": 0, "y": 0}, {"type": "position", "time": 211911, "x": 0, "y": 0}, {"type": "position", "time": 212897, "x": 0, "y": 0}, {"type": "position", "time": 213912, "x": 0, "y": 0}, {"type": "position", "time": 214897, "x": 0, "y": 0}, {"type": "position", "time": 215903, "x": 0, "y": 0}, {"type": "position", "time": 216917, "x": 0, "y": 0}, {"type": "position", "time": 217913, "x": 0, "y": 0}, {"type": "position", "time": 218903, "x": 0, "y": 0}, {"type": "position", "time": 219905, "x": 0, "y": 0}, {"type": "position", "time": 220905, "x": 0, "y": 0}, {"type": "position", "time": 221966, "x": 0, "y": 0}, {"type": "position", "time": 222902, "x": 0, "y": 0}, {"type": "position", "time": 223901, "x": 0, "y": 0}, {"type": "position", "time": 224904, "x": 0, "y": 0}, {"type": "position", "time": 225905, "x": 0, "y": 0}, {"type": "position", "time": 226906, "x": 0, "y": 0}, {"type": "position", "time": 227909, "x": 0, "y": 0}, {"type": "position", "time": 228903, "x": 0, "y": 0}, {"type": "position", "time": 230224, "x": 0, "y": 0}, {"type": "position", "time": 230905, "x": 0, "y": 0}, {"type": "position", "time": 232233, "x": 0, "y": 0}, {"type": "position", "time": 232906, "x": 0, "y": 0}, {"type": "position", "time": 233915, "x": 0, "y": 0}, {"type": "position", "time": 234904, "x": 0, "y": 0}, {"type": "position", "time": 235906, "x": 0, "y": 0}, {"type": "position", "time": 236898, "x": 0, "y": 0}, {"type": "position", "time": 237903, "x": 0, "y": 0}, {"type": "position", "time": 238905, "x": 0, "y": 0}, {"type": "position", "time": 239902, "x": 0, "y": 0}, {"type": "position", "time": 240909, "x": 0, "y": 0}, {"type": "position", "time": 241901, "x": 0, "y": 0}, {"type": "position", "time": 242902, "x": 0, "y": 0}, {"type": "position", "time": 243903, "x": 0, "y": 0}, {"type": "position", "time": 244904, "x": 0, "y": 0}, {"type": "position", "time": 245904, "x": 0, "y": 0}, {"type": "position", "time": 246890, "x": 0, "y": 0}, {"type": "position", "time": 247903, "x": 0, "y": 0}, {"type": "position", "time": 248907, "x": 0, "y": 0}, {"type": "position", "time": 249907, "x": 0, "y": 0}, {"type": "position", "time": 250905, "x": 0, "y": 0}, {"type": "position", "time": 251909, "x": 0, "y": 0}, {"type": "position", "time": 252910, "x": 0, "y": 0}, {"type": "position", "time": 253903, "x": 0, "y": 0}, {"type": "position", "time": 254903, "x": 0, "y": 0}, {"type": "position", "time": 255909, "x": 0, "y": 0}, {"type": "position", "time": 256902, "x": 0, "y": 0}, {"type": "position", "time": 257904, "x": 0, "y": 0}, {"type": "position", "time": 258903, "x": 0, "y": 0}, {"type": "position", "time": 259903, "x": 0, "y": 0}, {"type": "position", "time": 260903, "x": 0, "y": 0}, {"type": "position", "time": 261909, "x": 0, "y": 0}, {"type": "position", "time": 262903, "x": 0, "y": 0}, {"type": "position", "time": 263907, "x": 0, "y": 0}, {"type": "position", "time": 264903, "x": 0, "y": 0}, {"type": "position", "time": 265916, "x": 0, "y": 0}, {"type": "position", "time": 266903, "x": 0, "y": 0}, {"type": "position", "time": 267904, "x": 0, "y": 0}, {"type": "position", "time": 268916, "x": 0, "y": 0}, {"type": "position", "time": 269905, "x": 0, "y": 0}, {"type": "position", "time": 270902, "x": 0, "y": 0}, {"type": "position", "time": 271909, "x": 0, "y": 0}, {"type": "position", "time": 272909, "x": 0, "y": 0}, {"type": "position", "time": 273910, "x": 0, "y": 0}, {"type": "position", "time": 274910, "x": 0, "y": 0}, {"type": "position", "time": 275904, "x": 0, "y": 0}, {"type": "position", "time": 276905, "x": 0, "y": 0}, {"type": "position", "time": 277912, "x": 0, "y": 0}, {"type": "position", "time": 278903, "x": 0, "y": 0}, {"type": "position", "time": 279903, "x": 0, "y": 0}, {"type": "position", "time": 280904, "x": 0, "y": 0}, {"type": "position", "time": 281905, "x": 0, "y": 0}, {"type": "position", "time": 282903, "x": 0, "y": 0}, {"type": "position", "time": 283903, "x": 0, "y": 0}, {"type": "position", "time": 284904, "x": 0, "y": 0}, {"type": "position", "time": 285905, "x": 0, "y": 0}, {"type": "position", "time": 286905, "x": 0, "y": 0}, {"type": "position", "time": 287937, "x": 0, "y": 0}, {"type": "position", "time": 288906, "x": 0, "y": 0}, {"type": "position", "time": 289903, "x": 0, "y": 0}, {"type": "position", "time": 290908, "x": 0, "y": 0}, {"type": "position", "time": 291907, "x": 0, "y": 0}, {"type": "position", "time": 292908, "x": 0, "y": 0}, {"type": "position", "time": 293908, "x": 0, "y": 0}, {"type": "position", "time": 294902, "x": 0, "y": 0}, {"type": "position", "time": 295909, "x": 0, "y": 0}, {"type": "position", "time": 296908, "x": 0, "y": 0}, {"type": "position", "time": 297909, "x": 0, "y": 0}, {"type": "position", "time": 298909, "x": 0, "y": 0}, {"type": "position", "time": 299910, "x": 0, "y": 0}, {"type": "position", "time": 300909, "x": 0, "y": 0}, {"type": "position", "time": 301902, "x": 0, "y": 0}, {"type": "position", "time": 302915, "x": 0, "y": 0}, {"type": "position", "time": 303901, "x": 0, "y": 0}, {"type": "position", "time": 304902, "x": 0, "y": 0}, {"type": "position", "time": 305902, "x": 0, "y": 0}, {"type": "position", "time": 306902, "x": 0, "y": 0}, {"type": "position", "time": 307911, "x": 0, "y": 0}, {"type": "position", "time": 308910, "x": 0, "y": 0}, {"type": "position", "time": 309903, "x": 0, "y": 0}, {"type": "position", "time": 310902, "x": 0, "y": 0}, {"type": "position", "time": 311902, "x": 0, "y": 0}, {"type": "position", "time": 312902, "x": 0, "y": 0}, {"type": "position", "time": 313902, "x": 0, "y": 0}, {"type": "position", "time": 314903, "x": 0, "y": 0}, {"type": "position", "time": 315910, "x": 0, "y": 0}, {"type": "position", "time": 316901, "x": 0, "y": 0}, {"type": "position", "time": 317907, "x": 0, "y": 0}, {"type": "position", "time": 318907, "x": 0, "y": 0}, {"type": "position", "time": 319907, "x": 0, "y": 0}, {"type": "position", "time": 320909, "x": 0, "y": 0}, {"type": "position", "time": 321909, "x": 0, "y": 0}, {"type": "position", "time": 322910, "x": 0, "y": 0}, {"type": "position", "time": 323902, "x": 0, "y": 0}, {"type": "position", "time": 324903, "x": 0, "y": 0}, {"type": "position", "time": 325902, "x": 0, "y": 0}, {"type": "position", "time": 326902, "x": 0, "y": 0}, {"type": "position", "time": 327902, "x": 0, "y": 0}, {"type": "position", "time": 328901, "x": 0, "y": 0}, {"type": "position", "time": 329902, "x": 0, "y": 0}, {"type": "position", "time": 330910, "x": 0, "y": 0}, {"type": "position", "time": 331901, "x": 0, "y": 0}, {"type": "position", "time": 332901, "x": 0, "y": 0}, {"type": "position", "time": 333902, "x": 0, "y": 0}, {"type": "position", "time": 334921, "x": 0, "y": 0}, {"type": "position", "time": 335908, "x": 0, "y": 0}, {"type": "position", "time": 336909, "x": 0, "y": 0}, {"type": "position", "time": 337909, "x": 0, "y": 0}, {"type": "position", "time": 338909, "x": 0, "y": 0}, {"type": "position", "time": 339903, "x": 0, "y": 0}, {"type": "position", "time": 340905, "x": 0, "y": 0}, {"type": "position", "time": 341902, "x": 0, "y": 0}, {"type": "position", "time": 342903, "x": 0, "y": 0}, {"type": "position", "time": 343915, "x": 0, "y": 0}, {"type": "position", "time": 344916, "x": 0, "y": 0}, {"type": "position", "time": 345902, "x": 0, "y": 0}, {"type": "position", "time": 346902, "x": 0, "y": 0}, {"type": "position", "time": 347903, "x": 0, "y": 0}, {"type": "position", "time": 348903, "x": 0, "y": 0}, {"type": "position", "time": 349908, "x": 0, "y": 0}, {"type": "position", "time": 350907, "x": 0, "y": 0}, {"type": "position", "time": 351908, "x": 0, "y": 0}, {"type": "position", "time": 352902, "x": 0, "y": 0}, {"type": "position", "time": 353902, "x": 0, "y": 0}, {"type": "position", "time": 354902, "x": 0, "y": 0}, {"type": "position", "time": 355915, "x": 0, "y": 0}, {"type": "position", "time": 356907, "x": 0, "y": 0}, {"type": "position", "time": 357902, "x": 0, "y": 0}, {"type": "position", "time": 358903, "x": 0, "y": 0}, {"type": "position", "time": 359902, "x": 0, "y": 0}, {"type": "position", "time": 360902, "x": 0, "y": 0}, {"type": "position", "time": 361908, "x": 0, "y": 0}, {"type": "position", "time": 362909, "x": 0, "y": 0}, {"type": "position", "time": 363902, "x": 0, "y": 0}, {"type": "position", "time": 364903, "x": 0, "y": 0}, {"type": "position", "time": 365919, "x": 0, "y": 0}, {"type": "position", "time": 366902, "x": 0, "y": 0}, {"type": "position", "time": 367900, "x": 0, "y": 0}, {"type": "position", "time": 368905, "x": 0, "y": 0}, {"type": "position", "time": 369902, "x": 0, "y": 0}, {"type": "position", "time": 370903, "x": 0, "y": 0}, {"type": "position", "time": 371903, "x": 0, "y": 0}, {"type": "position", "time": 372904, "x": 0, "y": 0}, {"type": "position", "time": 373903, "x": 0, "y": 0}, {"type": "position", "time": 374903, "x": 0, "y": 0}, {"type": "position", "time": 375903, "x": 0, "y": 0}, {"type": "position", "time": 376903, "x": 0, "y": 0}, {"type": "position", "time": 377904, "x": 0, "y": 0}, {"type": "position", "time": 378938, "x": 0, "y": 0}, {"type": "position", "time": 379906, "x": 0, "y": 0}, {"type": "position", "time": 380903, "x": 0, "y": 0}, {"type": "position", "time": 381908, "x": 0, "y": 0}, {"type": "position", "time": 382917, "x": 0, "y": 0}, {"type": "position", "time": 383902, "x": 0, "y": 0}, {"type": "position", "time": 384902, "x": 0, "y": 0}, {"type": "position", "time": 385903, "x": 0, "y": 0}, {"type": "position", "time": 386903, "x": 0, "y": 0}, {"type": "position", "time": 387903, "x": 0, "y": 0}, {"type": "position", "time": 388903, "x": 0, "y": 0}, {"type": "position", "time": 389903, "x": 0, "y": 0}, {"type": "position", "time": 390902, "x": 0, "y": 0}, {"type": "position", "time": 391903, "x": 0, "y": 0}, {"type": "position", "time": 392903, "x": 0, "y": 0}, {"type": "position", "time": 393903, "x": 0, "y": 0}, {"type": "position", "time": 394904, "x": 0, "y": 0}, {"type": "position", "time": 395903, "x": 0, "y": 0}, {"type": "position", "time": 396903, "x": 0, "y": 0}, {"type": "position", "time": 397903, "x": 0, "y": 0}, {"type": "position", "time": 398903, "x": 0, "y": 0}, {"type": "position", "time": 399904, "x": 0, "y": 0}, {"type": "position", "time": 400903, "x": 0, "y": 0}, {"type": "position", "time": 401904, "x": 0, "y": 0}, {"type": "position", "time": 402904, "x": 0, "y": 0}, {"type": "position", "time": 403905, "x": 0, "y": 0}, {"type": "position", "time": 404906, "x": 0, "y": 0}, {"type": "position", "time": 405906, "x": 0, "y": 0}, {"type": "position", "time": 406906, "x": 0, "y": 0}, {"type": "position", "time": 407906, "x": 0, "y": 0}, {"type": "position", "time": 408908, "x": 0, "y": 0}, {"type": "position", "time": 409907, "x": 0, "y": 0}, {"type": "position", "time": 410908, "x": 0, "y": 0}, {"type": "position", "time": 411909, "x": 0, "y": 0}, {"type": "position", "time": 412910, "x": 0, "y": 0}, {"type": "position", "time": 413910, "x": 0, "y": 0}, {"type": "position", "time": 414911, "x": 0, "y": 0}, {"type": "position", "time": 415911, "x": 0, "y": 0}, {"type": "position", "time": 416912, "x": 0, "y": 0}, {"type": "position", "time": 417903, "x": 0, "y": 0}, {"type": "position", "time": 418913, "x": 0, "y": 0}, {"type": "position", "time": 419912, "x": 0, "y": 0}, {"type": "position", "time": 420913, "x": 0, "y": 0}, {"type": "position", "time": 421908, "x": 0, "y": 0}, {"type": "position", "time": 422906, "x": 0, "y": 0}, {"type": "position", "time": 423904, "x": 0, "y": 0}, {"type": "position", "time": 424916, "x": 0, "y": 0}, {"type": "position", "time": 425902, "x": 0, "y": 0}, {"type": "position", "time": 426905, "x": 0, "y": 0}, {"type": "position", "time": 427917, "x": 0, "y": 0}, {"type": "position", "time": 428904, "x": 0, "y": 0}, {"type": "position", "time": 429903, "x": 0, "y": 0}, {"type": "position", "time": 430902, "x": 0, "y": 0}, {"type": "position", "time": 431904, "x": 0, "y": 0}, {"type": "position", "time": 432906, "x": 0, "y": 0}, {"type": "position", "time": 433903, "x": 0, "y": 0}, {"type": "position", "time": 434904, "x": 0, "y": 0}, {"type": "position", "time": 435903, "x": 0, "y": 0}, {"type": "position", "time": 436902, "x": 0, "y": 0}, {"type": "position", "time": 437913, "x": 0, "y": 0}, {"type": "position", "time": 438903, "x": 0, "y": 0}, {"type": "position", "time": 439913, "x": 0, "y": 0}, {"type": "position", "time": 440902, "x": 0, "y": 0}, {"type": "position", "time": 441903, "x": 0, "y": 0}, {"type": "position", "time": 442903, "x": 0, "y": 0}, {"type": "position", "time": 443913, "x": 0, "y": 0}, {"type": "position", "time": 444911, "x": 0, "y": 0}, {"type": "position", "time": 445910, "x": 0, "y": 0}, {"type": "position", "time": 446911, "x": 0, "y": 0}, {"type": "position", "time": 447911, "x": 0, "y": 0}, {"type": "position", "time": 448912, "x": 0, "y": 0}, {"type": "position", "time": 449912, "x": 0, "y": 0}, {"type": "position", "time": 450904, "x": 0, "y": 0}, {"type": "position", "time": 451913, "x": 0, "y": 0}, {"type": "position", "time": 452913, "x": 0, "y": 0}, {"type": "position", "time": 453914, "x": 0, "y": 0}, {"type": "position", "time": 454917, "x": 0, "y": 0}, {"type": "position", "time": 455904, "x": 0, "y": 0}, {"type": "position", "time": 456909, "x": 0, "y": 0}, {"type": "position", "time": 457907, "x": 0, "y": 0}, {"type": "position", "time": 458903, "x": 0, "y": 0}, {"type": "position", "time": 459908, "x": 0, "y": 0}, {"type": "position", "time": 460907, "x": 0, "y": 0}, {"type": "position", "time": 461906, "x": 0, "y": 0}, {"type": "position", "time": 462904, "x": 0, "y": 0}, {"type": "position", "time": 463903, "x": 0, "y": 0}, {"type": "position", "time": 464903, "x": 0, "y": 0}, {"type": "position", "time": 465903, "x": 0, "y": 0}, {"type": "position", "time": 466908, "x": 0, "y": 0}, {"type": "position", "time": 467902, "x": 0, "y": 0}, {"type": "position", "time": 468905, "x": 0, "y": 0}, {"type": "position", "time": 469905, "x": 0, "y": 0}, {"type": "position", "time": 470918, "x": 0, "y": 0}, {"type": "position", "time": 471907, "x": 0, "y": 0}, {"type": "position", "time": 472918, "x": 0, "y": 0}, {"type": "position", "time": 473903, "x": 0, "y": 0}, {"type": "position", "time": 474909, "x": 0, "y": 0}, {"type": "position", "time": 475907, "x": 0, "y": 0}, {"type": "position", "time": 476908, "x": 0, "y": 0}, {"type": "position", "time": 477902, "x": 0, "y": 0}, {"type": "position", "time": 478904, "x": 0, "y": 0}, {"type": "position", "time": 479905, "x": 0, "y": 0}, {"type": "position", "time": 480903, "x": 0, "y": 0}, {"type": "position", "time": 481912, "x": 0, "y": 0}, {"type": "position", "time": 482908, "x": 0, "y": 0}, {"type": "position", "time": 483909, "x": 0, "y": 0}, {"type": "position", "time": 484914, "x": 0, "y": 0}, {"type": "position", "time": 485909, "x": 0, "y": 0}, {"type": "position", "time": 486903, "x": 0, "y": 0}, {"type": "position", "time": 487910, "x": 0, "y": 0}, {"type": "position", "time": 488911, "x": 0, "y": 0}, {"type": "position", "time": 489910, "x": 0, "y": 0}, {"type": "position", "time": 490916, "x": 0, "y": 0}, {"type": "position", "time": 491910, "x": 0, "y": 0}, {"type": "position", "time": 492910, "x": 0, "y": 0}, {"type": "position", "time": 493915, "x": 0, "y": 0}, {"type": "position", "time": 494906, "x": 0, "y": 0}, {"type": "position", "time": 495905, "x": 0, "y": 0}, {"type": "position", "time": 496917, "x": 0, "y": 0}, {"type": "position", "time": 497902, "x": 0, "y": 0}, {"type": "position", "time": 498903, "x": 0, "y": 0}, {"type": "position", "time": 499904, "x": 0, "y": 0}, {"type": "position", "time": 500904, "x": 0, "y": 0}, {"type": "position", "time": 501904, "x": 0, "y": 0}, {"type": "position", "time": 502915, "x": 0, "y": 0}, {"type": "position", "time": 503902, "x": 0, "y": 0}, {"type": "position", "time": 504917, "x": 0, "y": 0}, {"type": "position", "time": 505916, "x": 0, "y": 0}, {"type": "position", "time": 506903, "x": 0, "y": 0}, {"type": "position", "time": 507903, "x": 0, "y": 0}, {"type": "position", "time": 508903, "x": 0, "y": 0}, {"type": "position", "time": 509903, "x": 0, "y": 0}, {"type": "position", "time": 510903, "x": 0, "y": 0}, {"type": "position", "time": 511903, "x": 0, "y": 0}, {"type": "position", "time": 512903, "x": 0, "y": 0}, {"type": "position", "time": 513903, "x": 0, "y": 0}, {"type": "position", "time": 514903, "x": 0, "y": 0}, {"type": "position", "time": 515903, "x": 0, "y": 0}, {"type": "position", "time": 516903, "x": 0, "y": 0}, {"type": "position", "time": 517904, "x": 0, "y": 0}, {"type": "position", "time": 518905, "x": 0, "y": 0}, {"type": "position", "time": 519904, "x": 0, "y": 0}, {"type": "position", "time": 520904, "x": 0, "y": 0}, {"type": "position", "time": 521904, "x": 0, "y": 0}, {"type": "position", "time": 522905, "x": 0, "y": 0}, {"type": "position", "time": 523904, "x": 0, "y": 0}, {"type": "position", "time": 524905, "x": 0, "y": 0}, {"type": "position", "time": 525906, "x": 0, "y": 0}, {"type": "position", "time": 526907, "x": 0, "y": 0}, {"type": "position", "time": 527907, "x": 0, "y": 0}, {"type": "position", "time": 528913, "x": 0, "y": 0}, {"type": "position", "time": 529892, "x": 0, "y": 0}, {"type": "position", "time": 530914, "x": 0, "y": 0}, {"type": "position", "time": 531908, "x": 0, "y": 0}, {"type": "position", "time": 532903, "x": 0, "y": 0}, {"type": "position", "time": 533903, "x": 0, "y": 0}, {"type": "position", "time": 534912, "x": 0, "y": 0}, {"type": "position", "time": 535911, "x": 0, "y": 0}, {"type": "position", "time": 536907, "x": 0, "y": 0}, {"type": "position", "time": 537910, "x": 0, "y": 0}, {"type": "position", "time": 538912, "x": 0, "y": 0}, {"type": "position", "time": 539902, "x": 0, "y": 0}, {"type": "position", "time": 540912, "x": 0, "y": 0}, {"type": "position", "time": 541902, "x": 0, "y": 0}, {"type": "position", "time": 542913, "x": 0, "y": 0}, {"type": "position", "time": 543905, "x": 0, "y": 0}, {"type": "position", "time": 544913, "x": 0, "y": 0}, {"type": "position", "time": 545912, "x": 0, "y": 0}, {"type": "position", "time": 546903, "x": 0, "y": 0}, {"type": "position", "time": 547914, "x": 0, "y": 0}, {"type": "position", "time": 548914, "x": 0, "y": 0}, {"type": "position", "time": 549903, "x": 0, "y": 0}, {"type": "position", "time": 550916, "x": 0, "y": 0}, {"type": "position", "time": 551903, "x": 0, "y": 0}, {"type": "position", "time": 552905, "x": 0, "y": 0}, {"type": "position", "time": 553917, "x": 0, "y": 0}, {"type": "position", "time": 554905, "x": 0, "y": 0}, {"type": "position", "time": 555902, "x": 0, "y": 0}, {"type": "position", "time": 556904, "x": 0, "y": 0}, {"type": "position", "time": 557903, "x": 0, "y": 0}, {"type": "position", "time": 558903, "x": 0, "y": 0}, {"type": "position", "time": 559903, "x": 0, "y": 0}, {"type": "position", "time": 560905, "x": 0, "y": 0}, {"type": "position", "time": 561908, "x": 0, "y": 0}, {"type": "position", "time": 562908, "x": 0, "y": 0}, {"type": "position", "time": 563909, "x": 0, "y": 0}, {"type": "position", "time": 564902, "x": 0, "y": 0}, {"type": "position", "time": 565906, "x": 0, "y": 0}, {"type": "position", "time": 566902, "x": 0, "y": 0}, {"type": "position", "time": 567903, "x": 0, "y": 0}, {"type": "position", "time": 568904, "x": 0, "y": 0}, {"type": "position", "time": 569905, "x": 0, "y": 0}, {"type": "position", "time": 570907, "x": 0, "y": 0}, {"type": "position", "time": 571908, "x": 0, "y": 0}, {"type": "position", "time": 572909, "x": 0, "y": 0}, {"type": "position", "time": 573912, "x": 0, "y": 0}, {"type": "position", "time": 574910, "x": 0, "y": 0}, {"type": "position", "time": 575904, "x": 0, "y": 0}, {"type": "position", "time": 576905, "x": 0, "y": 0}, {"type": "position", "time": 577913, "x": 0, "y": 0}, {"type": "position", "time": 578913, "x": 0, "y": 0}, {"type": "position", "time": 579914, "x": 0, "y": 0}, {"type": "position", "time": 580914, "x": 0, "y": 0}, {"type": "position", "time": 581906, "x": 0, "y": 0}, {"type": "position", "time": 582902, "x": 0, "y": 0}, {"type": "position", "time": 583916, "x": 0, "y": 0}, {"type": "position", "time": 584905, "x": 0, "y": 0}, {"type": "position", "time": 585917, "x": 0, "y": 0}, {"type": "position", "time": 586902, "x": 0, "y": 0}, {"type": "position", "time": 587902, "x": 0, "y": 0}, {"type": "position", "time": 588903, "x": 0, "y": 0}, {"type": "position", "time": 589902, "x": 0, "y": 0}, {"type": "position", "time": 590905, "x": 0, "y": 0}, {"type": "position", "time": 591905, "x": 0, "y": 0}, {"type": "position", "time": 592903, "x": 0, "y": 0}, {"type": "position", "time": 593903, "x": 0, "y": 0}, {"type": "position", "time": 594905, "x": 0, "y": 0}, {"type": "position", "time": 595909, "x": 0, "y": 0}, {"type": "position", "time": 596903, "x": 0, "y": 0}, {"type": "position", "time": 597903, "x": 0, "y": 0}, {"type": "position", "time": 598904, "x": 0, "y": 0}, {"type": "position", "time": 599911, "x": 0, "y": 0}, {"type": "position", "time": 600903, "x": 0, "y": 0}, {"type": "position", "time": 601914, "x": 0, "y": 0}, {"type": "position", "time": 602907, "x": 0, "y": 0}, {"type": "position", "time": 603904, "x": 0, "y": 0}, {"type": "position", "time": 604904, "x": 0, "y": 0}, {"type": "position", "time": 605901, "x": 0, "y": 0}, {"type": "position", "time": 606904, "x": 0, "y": 0}, {"type": "position", "time": 607902, "x": 0, "y": 0}, {"type": "position", "time": 608902, "x": 0, "y": 0}, {"type": "position", "time": 609902, "x": 0, "y": 0}, {"type": "position", "time": 610903, "x": 0, "y": 0}, {"type": "position", "time": 611904, "x": 0, "y": 0}, {"type": "position", "time": 612908, "x": 0, "y": 0}, {"type": "position", "time": 613908, "x": 0, "y": 0}, {"type": "position", "time": 614902, "x": 0, "y": 0}, {"type": "position", "time": 615903, "x": 0, "y": 0}, {"type": "position", "time": 616906, "x": 0, "y": 0}, {"type": "position", "time": 617904, "x": 0, "y": 0}, {"type": "position", "time": 618908, "x": 0, "y": 0}, {"type": "position", "time": 619907, "x": 0, "y": 0}, {"type": "position", "time": 620910, "x": 0, "y": 0}, {"type": "position", "time": 621910, "x": 0, "y": 0}, {"type": "position", "time": 622911, "x": 0, "y": 0}, {"type": "position", "time": 623912, "x": 0, "y": 0}, {"type": "position", "time": 624913, "x": 0, "y": 0}, {"type": "position", "time": 625913, "x": 0, "y": 0}, {"type": "position", "time": 626914, "x": 0, "y": 0}, {"type": "position", "time": 627915, "x": 0, "y": 0}, {"type": "position", "time": 628914, "x": 0, "y": 0}, {"type": "position", "time": 629905, "x": 0, "y": 0}, {"type": "position", "time": 630901, "x": 0, "y": 0}, {"type": "position", "time": 631901, "x": 0, "y": 0}, {"type": "position", "time": 632902, "x": 0, "y": 0}, {"type": "position", "time": 633904, "x": 0, "y": 0}, {"type": "position", "time": 634904, "x": 0, "y": 0}, {"type": "position", "time": 635904, "x": 0, "y": 0}, {"type": "position", "time": 636902, "x": 0, "y": 0}, {"type": "position", "time": 637907, "x": 0, "y": 0}, {"type": "position", "time": 638908, "x": 0, "y": 0}, {"type": "position", "time": 639909, "x": 0, "y": 0}, {"type": "position", "time": 640910, "x": 0, "y": 0}, {"type": "position", "time": 641910, "x": 0, "y": 0}, {"type": "position", "time": 642914, "x": 0, "y": 0}, {"type": "position", "time": 643903, "x": 0, "y": 0}, {"type": "position", "time": 644910, "x": 0, "y": 0}, {"type": "position", "time": 645910, "x": 0, "y": 0}, {"type": "position", "time": 646904, "x": 0, "y": 0}, {"type": "position", "time": 647902, "x": 0, "y": 0}, {"type": "position", "time": 648905, "x": 0, "y": 0}, {"type": "position", "time": 649903, "x": 0, "y": 0}, {"type": "position", "time": 650901, "x": 0, "y": 0}, {"type": "position", "time": 651902, "x": 0, "y": 0}, {"type": "position", "time": 652903, "x": 0, "y": 0}, {"type": "position", "time": 653912, "x": 0, "y": 0}, {"type": "position", "time": 654908, "x": 0, "y": 0}, {"type": "position", "time": 655909, "x": 0, "y": 0}, {"type": "position", "time": 656901, "x": 0, "y": 0}, {"type": "position", "time": 657902, "x": 0, "y": 0}, {"type": "position", "time": 658903, "x": 0, "y": 0}, {"type": "position", "time": 659911, "x": 0, "y": 0}, {"type": "position", "time": 660912, "x": 0, "y": 0}, {"type": "position", "time": 661913, "x": 0, "y": 0}, {"type": "position", "time": 662914, "x": 0, "y": 0}, {"type": "position", "time": 663915, "x": 0, "y": 0}, {"type": "position", "time": 664915, "x": 0, "y": 0}, {"type": "position", "time": 665915, "x": 0, "y": 0}, {"type": "position", "time": 666916, "x": 0, "y": 0}, {"type": "position", "time": 667917, "x": 0, "y": 0}, {"type": "position", "time": 668916, "x": 0, "y": 0}, {"type": "position", "time": 669918, "x": 0, "y": 0}, {"type": "position", "time": 670902, "x": 0, "y": 0}, {"type": "position", "time": 671903, "x": 0, "y": 0}, {"type": "position", "time": 672903, "x": 0, "y": 0}, {"type": "position", "time": 673903, "x": 0, "y": 0}, {"type": "position", "time": 674904, "x": 0, "y": 0}, {"type": "position", "time": 675904, "x": 0, "y": 0}, {"type": "position", "time": 676903, "x": 0, "y": 0}, {"type": "position", "time": 677903, "x": 0, "y": 0}, {"type": "position", "time": 678903, "x": 0, "y": 0}, {"type": "position", "time": 679904, "x": 0, "y": 0}, {"type": "position", "time": 680904, "x": 0, "y": 0}, {"type": "position", "time": 681914, "x": 0, "y": 0}, {"type": "position", "time": 682904, "x": 0, "y": 0}, {"type": "position", "time": 683904, "x": 0, "y": 0}, {"type": "position", "time": 684904, "x": 0, "y": 0}, {"type": "position", "time": 685914, "x": 0, "y": 0}, {"type": "position", "time": 686902, "x": 0, "y": 0}, {"type": "position", "time": 687914, "x": 0, "y": 0}, {"type": "position", "time": 688914, "x": 0, "y": 0}, {"type": "position", "time": 689910, "x": 0, "y": 0}, {"type": "position", "time": 690910, "x": 0, "y": 0}, {"type": "position", "time": 691895, "x": 0, "y": 0}, {"type": "position", "time": 692911, "x": 0, "y": 0}, {"type": "position", "time": 693911, "x": 0, "y": 0}, {"type": "position", "time": 694913, "x": 0, "y": 0}, {"type": "position", "time": 695914, "x": 0, "y": 0}, {"type": "position", "time": 696915, "x": 0, "y": 0}, {"type": "position", "time": 697915, "x": 0, "y": 0}, {"type": "position", "time": 698903, "x": 0, "y": 0}, {"type": "position", "time": 699917, "x": 0, "y": 0}, {"type": "position", "time": 700902, "x": 0, "y": 0}, {"type": "position", "time": 701903, "x": 0, "y": 0}, {"type": "position", "time": 702904, "x": 0, "y": 0}, {"type": "position", "time": 703903, "x": 0, "y": 0}, {"type": "position", "time": 704902, "x": 0, "y": 0}, {"type": "position", "time": 705903, "x": 0, "y": 0}, {"type": "position", "time": 706903, "x": 0, "y": 0}, {"type": "position", "time": 707903, "x": 0, "y": 0}, {"type": "position", "time": 708903, "x": 0, "y": 0}, {"type": "position", "time": 709902, "x": 0, "y": 0}, {"type": "position", "time": 710910, "x": 0, "y": 0}, {"type": "position", "time": 711909, "x": 0, "y": 0}, {"type": "position", "time": 712917, "x": 0, "y": 0}, {"type": "position", "time": 713902, "x": 0, "y": 0}, {"type": "position", "time": 714903, "x": 0, "y": 0}, {"type": "position", "time": 715903, "x": 0, "y": 0}, {"type": "position", "time": 716905, "x": 0, "y": 0}, {"type": "position", "time": 717904, "x": 0, "y": 0}, {"type": "position", "time": 718917, "x": 0, "y": 0}, {"type": "position", "time": 719906, "x": 0, "y": 0}, {"type": "position", "time": 720903, "x": 0, "y": 0}, {"type": "position", "time": 721908, "x": 0, "y": 0}, {"type": "position", "time": 722905, "x": 0, "y": 0}, {"type": "position", "time": 723908, "x": 0, "y": 0}, {"type": "position", "time": 724903, "x": 0, "y": 0}, {"type": "position", "time": 725903, "x": 0, "y": 0}, {"type": "position", "time": 726911, "x": 0, "y": 0}, {"type": "position", "time": 727912, "x": 0, "y": 0}, {"type": "position", "time": 728912, "x": 0, "y": 0}, {"type": "position", "time": 729905, "x": 0, "y": 0}, {"type": "position", "time": 730913, "x": 0, "y": 0}, {"type": "position", "time": 731914, "x": 0, "y": 0}, {"type": "position", "time": 732903, "x": 0, "y": 0}, {"type": "position", "time": 733914, "x": 0, "y": 0}, {"type": "position", "time": 734915, "x": 0, "y": 0}, {"type": "position", "time": 735915, "x": 0, "y": 0}, {"type": "position", "time": 736916, "x": 0, "y": 0}, {"type": "position", "time": 737916, "x": 0, "y": 0}, {"type": "position", "time": 738917, "x": 0, "y": 0}, {"type": "position", "time": 739916, "x": 0, "y": 0}, {"type": "position", "time": 740903, "x": 0, "y": 0}, {"type": "position", "time": 741904, "x": 0, "y": 0}, {"type": "position", "time": 742904, "x": 0, "y": 0}, {"type": "position", "time": 743902, "x": 0, "y": 0}, {"type": "position", "time": 744903, "x": 0, "y": 0}, {"type": "position", "time": 745903, "x": 0, "y": 0}, {"type": "position", "time": 746895, "x": 0, "y": 0}, {"type": "position", "time": 747903, "x": 0, "y": 0}, {"type": "position", "time": 748911, "x": 0, "y": 0}, {"type": "position", "time": 749902, "x": 0, "y": 0}, {"type": "position", "time": 750941, "x": 0, "y": 0}, {"type": "position", "time": 751902, "x": 0, "y": 0}, {"type": "position", "time": 752912, "x": 0, "y": 0}, {"type": "position", "time": 753902, "x": 0, "y": 0}, {"type": "position", "time": 754903, "x": 0, "y": 0}, {"type": "position", "time": 755903, "x": 0, "y": 0}, {"type": "position", "time": 756903, "x": 0, "y": 0}, {"type": "position", "time": 757904, "x": 0, "y": 0}, {"type": "position", "time": 758903, "x": 0, "y": 0}, {"type": "position", "time": 759904, "x": 0, "y": 0}, {"type": "position", "time": 760903, "x": 0, "y": 0}, {"type": "position", "time": 761912, "x": 0, "y": 0}, {"type": "position", "time": 762902, "x": 0, "y": 0}, {"type": "position", "time": 763904, "x": 0, "y": 0}, {"type": "position", "time": 764903, "x": 0, "y": 0}, {"type": "position", "time": 765903, "x": 0, "y": 0}, {"type": "position", "time": 766109, "x": 0, "y": 0}, {"type": "position", "time": 766123, "x": 0, "y": 0}, {"type": "position", "time": 766159, "x": 0, "y": 0}, {"type": "position", "time": 766210, "x": 0, "y": 0}, {"type": "position", "time": 766259, "x": 0, "y": 0}, {"type": "position", "time": 766309, "x": 0, "y": 0}, {"type": "position", "time": 766370, "x": 0, "y": 0}, {"type": "position", "time": 766409, "x": 0, "y": 0}, {"type": "position", "time": 766459, "x": 0, "y": 0}, {"type": "position", "time": 766510, "x": 0, "y": 0}, {"type": "position", "time": 766560, "x": 0, "y": 0}, {"type": "position", "time": 766610, "x": 0, "y": 0}, {"type": "position", "time": 766659, "x": 0, "y": 0}, {"type": "position", "time": 766709, "x": 0, "y": 0}, {"type": "position", "time": 766759, "x": 0, "y": 0}, {"type": "position", "time": 766809, "x": 0, "y": 0}, {"type": "position", "time": 766860, "x": 0, "y": 0}, {"type": "position", "time": 766910, "x": 0, "y": 0}, {"type": "position", "time": 766970, "x": 0, "y": 0}, {"type": "position", "time": 767010, "x": 0, "y": 0}, {"type": "position", "time": 767060, "x": 0, "y": 0}, {"type": "position", "time": 767110, "x": 0, "y": 0}, {"type": "position", "time": 767159, "x": 0, "y": 0}, {"type": "position", "time": 767210, "x": 0, "y": 0}, {"type": "position", "time": 767260, "x": 0, "y": 0}, {"type": "position", "time": 767310, "x": 0, "y": 0}, {"type": "position", "time": 767360, "x": 0, "y": 0}, {"type": "position", "time": 767410, "x": 0, "y": 0}, {"type": "position", "time": 767459, "x": 0, "y": 0}, {"type": "position", "time": 767569, "x": 0, "y": 0}, {"type": "position", "time": 767609, "x": 0, "y": 0}, {"type": "position", "time": 767661, "x": 0, "y": 0}, {"type": "position", "time": 767710, "x": 0, "y": 0}, {"type": "position", "time": 767760, "x": 0, "y": 0}, {"type": "position", "time": 767810, "x": 0, "y": 0}, {"type": "position", "time": 767859, "x": 0, "y": 0}, {"type": "position", "time": 767910, "x": 0, "y": 0}, {"type": "position", "time": 767960, "x": 0, "y": 0}, {"type": "position", "time": 768009, "x": 0, "y": 0}, {"type": "position", "time": 768059, "x": 0, "y": 0}, {"type": "position", "time": 768109, "x": 0, "y": 0}, {"type": "position", "time": 768160, "x": null, "y": 0.051666666666666666}, {"type": "position", "time": 768210, "x": null, "y": 0.12666666666666668}, {"type": "position", "time": 768260, "x": null, "y": 0.13333333333333333}, {"type": "position", "time": 768310, "x": null, "y": 0.125}, {"type": "position", "time": 768354, "x": null, "y": 0.11166666666666666}, {"type": "position", "time": 768410, "x": null, "y": 0.07666666666666666}, {"type": "position", "time": 768455, "x": null, "y": 0.041666666666666664}, {"type": "position", "time": 768510, "x": null, "y": 0.03833333333333333}, {"type": "position", "time": 768561, "x": null, "y": 0.035}, {"type": "position", "time": 768610, "x": null, "y": 0.035}, {"type": "position", "time": 768659, "x": null, "y": 0.035}, {"type": "position", "time": 768709, "x": null, "y": 0.035}, {"type": "position", "time": 768771, "x": null, "y": 0.035}, {"type": "position", "time": 768810, "x": null, "y": 0.035}, {"type": "position", "time": 768860, "x": null, "y": 0.035}, {"type": "position", "time": 768909, "x": null, "y": 0.035}, {"type": "position", "time": 768960, "x": null, "y": 0.035}, {"type": "position", "time": 769010, "x": null, "y": 0.035}, {"type": "position", "time": 769054, "x": null, "y": 0.14833333333333334}, {"type": "position", "time": 769109, "x": null, "y": 0.24666666666666667}, {"type": "position", "time": 769159, "x": null, "y": 0.2683333333333333}, {"type": "position", "time": 769209, "x": null, "y": 0.2683333333333333}, {"type": "position", "time": 769270, "x": null, "y": 0.2683333333333333}, {"type": "position", "time": 769310, "x": null, "y": 0.2683333333333333}, {"type": "position", "time": 769360, "x": null, "y": 0.2683333333333333}, {"type": "position", "time": 769409, "x": null, "y": 0.2683333333333333}, {"type": "position", "time": 769460, "x": null, "y": 0.36833333333333335}, {"type": "position", "time": 769510, "x": null, "y": 0.36833333333333335}, {"type": "position", "time": 769560, "x": null, "y": 0.36833333333333335}, {"type": "position", "time": 769620, "x": null, "y": 0.36833333333333335}, {"type": "position", "time": 769660, "x": null, "y": 0.38666666666666666}, {"type": "position", "time": 769709, "x": null, "y": 0.3883333333333333}, {"type": "position", "time": 769760, "x": null, "y": 0.39666666666666667}, {"type": "position", "time": 769810, "x": null, "y": 0.405}, {"type": "position", "time": 769870, "x": null, "y": 0.4066666666666667}, {"type": "position", "time": 769912, "x": null, "y": 0.4066666666666667}, {"type": "position", "time": 769959, "x": null, "y": 0.4066666666666667}, {"type": "position", "time": 770010, "x": null, "y": 0.4083333333333333}, {"type": "position", "time": 770060, "x": null, "y": 0.4533333333333333}, {"type": "position", "time": 770110, "x": null, "y": 0.4716666666666667}, {"type": "position", "time": 770170, "x": null, "y": 0.4766666666666667}, {"type": "position", "time": 770210, "x": null, "y": 0.48}, {"type": "position", "time": 770260, "x": null, "y": 0.4866666666666667}, {"type": "position", "time": 770310, "x": null, "y": 0.49833333333333335}, {"type": "position", "time": 770372, "x": null, "y": 0.5}, {"type": "position", "time": 770410, "x": null, "y": 0.5}, {"type": "position", "time": 770454, "x": null, "y": 0.5}, {"type": "position", "time": 770510, "x": null, "y": 0.5}, {"type": "position", "time": 770559, "x": null, "y": 0.5}, {"type": "position", "time": 770609, "x": null, "y": 0.5}, {"type": "position", "time": 770660, "x": null, "y": 0.5}, {"type": "position", "time": 770710, "x": null, "y": 0.5}, {"type": "position", "time": 770770, "x": null, "y": 0.7016666666666667}, {"type": "position", "time": 770810, "x": null, "y": 0.7016666666666667}, {"type": "position", "time": 770860, "x": null, "y": 0.7016666666666667}, {"type": "position", "time": 770900, "x": null, "y": 0.6583333333333333}, {"type": "position", "time": 770960, "x": null, "y": 0.555}, {"type": "position", "time": 771011, "x": null, "y": 0.49333333333333335}, {"type": "position", "time": 771058, "x": null, "y": 0.49166666666666664}, {"type": "position", "time": 771110, "x": null, "y": 0.495}, {"type": "position", "time": 771157, "x": null, "y": 0.49833333333333335}, {"type": "position", "time": 771210, "x": null, "y": 0.49833333333333335}, {"type": "position", "time": 771257, "x": null, "y": 0.49333333333333335}, {"type": "position", "time": 771310, "x": null, "y": 0.49166666666666664}, {"type": "position", "time": 771373, "x": null, "y": 0.49}, {"type": "position", "time": 771406, "x": null, "y": 0.49}, {"type": "click", "time": 771481, "x": null, "y": 0.49}, {"type": "position", "time": 771488, "x": null, "y": 0.49}, {"type": "position", "time": 771511, "x": null, "y": 0.49}, {"type": "position", "time": 771570, "x": null, "y": 0.49}, {"type": "position", "time": 771610, "x": null, "y": 0.49}, {"type": "position", "time": 771665, "x": null, "y": 0.49}, {"type": "position", "time": 771711, "x": null, "y": 0.5}, {"type": "position", "time": 771763, "x": null, "y": 0.5433333333333333}, {"type": "position", "time": 771811, "x": null, "y": 0.5733333333333334}, {"type": "position", "time": 771863, "x": null, "y": 0.5816666666666667}, {"type": "position", "time": 771907, "x": null, "y": 0.575}, {"type": "position", "time": 771959, "x": null, "y": 0.52}, {"type": "position", "time": 772007, "x": null, "y": 0.49333333333333335}, {"type": "position", "time": 772059, "x": null, "y": 0.48333333333333334}, {"type": "position", "time": 772111, "x": null, "y": 0.44}, {"type": "position", "time": 772171, "x": null, "y": 0.44}, {"type": "position", "time": 772211, "x": null, "y": 0.44}, {"type": "position", "time": 772273, "x": null, "y": 0.44}, {"type": "position", "time": 772311, "x": null, "y": 0.44}, {"type": "position", "time": 772374, "x": null, "y": 0.44}, {"type": "position", "time": 772410, "x": null, "y": 0.44}, {"type": "position", "time": 772457, "x": null, "y": 0.44}, {"type": "position", "time": 772496, "x": null, "y": 0.44}, {"type": "position", "time": 772563, "x": null, "y": 0.44}, {"type": "position", "time": 772611, "x": null, "y": 0.44}, {"type": "position", "time": 772674, "x": null, "y": 0.44}, {"type": "position", "time": 772711, "x": null, "y": 0.44}, {"type": "position", "time": 772774, "x": null, "y": 0.44}, {"type": "position", "time": 772811, "x": null, "y": 0.44}, {"type": "position", "time": 772873, "x": null, "y": 0.44}, {"type": "position", "time": 772911, "x": null, "y": 0.44}, {"type": "position", "time": 772959, "x": null, "y": 0.44}, {"type": "position", "time": 773011, "x": null, "y": 0.44}, {"type": "position", "time": 773074, "x": null, "y": 0.44}, {"type": "position", "time": 773111, "x": null, "y": 0.44}, {"type": "position", "time": 773174, "x": null, "y": 0.44}, {"type": "position", "time": 773212, "x": null, "y": 0.44}, {"type": "position", "time": 773274, "x": null, "y": 0.44}, {"type": "position", "time": 773311, "x": null, "y": 0.44}, {"type": "position", "time": 773374, "x": null, "y": 0.44}, {"type": "position", "time": 773412, "x": null, "y": 0.44}, {"type": "position", "time": 773474, "x": null, "y": 0.44}, {"type": "position", "time": 773512, "x": null, "y": 0.44}, {"type": "position", "time": 773574, "x": null, "y": 0.44}, {"type": "position", "time": 773612, "x": null, "y": 0.44}, {"type": "position", "time": 773674, "x": null, "y": 0.44}, {"type": "position", "time": 773711, "x": null, "y": 0.44}, {"type": "position", "time": 773774, "x": null, "y": 0.44}, {"type": "position", "time": 773812, "x": null, "y": 0.44}, {"type": "position", "time": 773874, "x": null, "y": 0.44}, {"type": "position", "time": 773913, "x": null, "y": 0.44}, {"type": "position", "time": 773973, "x": null, "y": 0.44}, {"type": "position", "time": 774012, "x": null, "y": 0.44}, {"type": "position", "time": 774075, "x": null, "y": 0.44}, {"type": "position", "time": 774112, "x": null, "y": 0.44}, {"type": "position", "time": 774175, "x": null, "y": 0.44}, {"type": "position", "time": 774212, "x": null, "y": 0.44}, {"type": "position", "time": 774275, "x": null, "y": 0.44}, {"type": "position", "time": 774312, "x": null, "y": 0.44}, {"type": "position", "time": 774359, "x": null, "y": 0.44}, {"type": "position", "time": 774412, "x": null, "y": 0.44}, {"type": "position", "time": 774459, "x": null, "y": 0.44}, {"type": "position", "time": 774512, "x": null, "y": 0.44}, {"type": "position", "time": 774575, "x": null, "y": 0.44}, {"type": "position", "time": 774612, "x": null, "y": 0.44}, {"type": "position", "time": 774675, "x": null, "y": 0.44}, {"type": "position", "time": 774712, "x": null, "y": 0.44}, {"type": "position", "time": 774775, "x": null, "y": 0.44}, {"type": "position", "time": 774813, "x": null, "y": 0.44}, {"type": "position", "time": 774875, "x": null, "y": 0.44}, {"type": "position", "time": 774913, "x": null, "y": 0.44}, {"type": "position", "time": 774973, "x": null, "y": 0.44}, {"type": "position", "time": 775013, "x": null, "y": 0.44}, {"type": "position", "time": 775060, "x": null, "y": 0.44}, {"type": "position", "time": 775113, "x": null, "y": 0.44}, {"type": "position", "time": 775160, "x": null, "y": 0.44}, {"type": "position", "time": 775213, "x": null, "y": 0.44}, {"type": "position", "time": 775260, "x": null, "y": 0.44}, {"type": "position", "time": 775313, "x": null, "y": 0.44}, {"type": "position", "time": 775360, "x": null, "y": 0.44}, {"type": "position", "time": 775413, "x": null, "y": 0.44}, {"type": "position", "time": 775460, "x": null, "y": 0.44}, {"type": "position", "time": 775514, "x": null, "y": 0.44}, {"type": "position", "time": 775561, "x": null, "y": 0.44}, {"type": "position", "time": 775614, "x": null, "y": 0.44}, {"type": "position", "time": 775661, "x": null, "y": 0.44}, {"type": "position", "time": 775714, "x": null, "y": 0.44}, {"type": "position", "time": 775761, "x": null, "y": 0.44}, {"type": "position", "time": 775814, "x": null, "y": 0.44}, {"type": "position", "time": 775861, "x": null, "y": 0.44}, {"type": "position", "time": 775910, "x": null, "y": 0.44}, {"type": "position", "time": 775961, "x": null, "y": 0.44}, {"type": "position", "time": 776014, "x": null, "y": 0.44}, {"type": "position", "time": 776061, "x": null, "y": 0.44}, {"type": "position", "time": 776115, "x": null, "y": 0.44}, {"type": "position", "time": 776162, "x": null, "y": 0.44}, {"type": "position", "time": 776215, "x": null, "y": 0.44}, {"type": "position", "time": 776261, "x": null, "y": 0.44}, {"type": "position", "time": 776315, "x": null, "y": 0.44}, {"type": "position", "time": 776361, "x": null, "y": 0.44}, {"type": "position", "time": 776399, "x": null, "y": 0.44}, {"type": "position", "time": 776462, "x": null, "y": 0.44}, {"type": "position", "time": 776515, "x": null, "y": 0.44}, {"type": "position", "time": 776562, "x": null, "y": 0.44}, {"type": "position", "time": 776616, "x": null, "y": 0.44}, {"type": "position", "time": 776659, "x": null, "y": 0.44}, {"type": "position", "time": 776711, "x": null, "y": 0.44}, {"type": "position", "time": 776765, "x": null, "y": 0.44}, {"type": "position", "time": 776815, "x": null, "y": 0.44}, {"type": "position", "time": 776862, "x": null, "y": 0.44}, {"type": "position", "time": 776916, "x": null, "y": 0.44}, {"type": "position", "time": 776972, "x": null, "y": 0.44}, {"type": "position", "time": 777016, "x": null, "y": 0.44}, {"type": "position", "time": 777063, "x": null, "y": 0.44}, {"type": "position", "time": 777116, "x": null, "y": 0.44}, {"type": "position", "time": 777163, "x": null, "y": 0.44}, {"type": "position", "time": 777216, "x": null, "y": 0.44}, {"type": "position", "time": 777263, "x": null, "y": 0.44}, {"type": "position", "time": 777316, "x": null, "y": 0.44}, {"type": "position", "time": 777363, "x": null, "y": 0.44}, {"type": "position", "time": 777416, "x": null, "y": 0.44}, {"type": "position", "time": 777463, "x": null, "y": 0.44}, {"type": "position", "time": 777516, "x": null, "y": 0.44}, {"type": "position", "time": 777563, "x": null, "y": 0.44}, {"type": "position", "time": 777616, "x": null, "y": 0.44}, {"type": "position", "time": 777663, "x": null, "y": 0.44}, {"type": "position", "time": 777716, "x": null, "y": 0.44}, {"type": "position", "time": 777763, "x": null, "y": 0.44}, {"type": "position", "time": 777816, "x": null, "y": 0.44}, {"type": "position", "time": 777863, "x": null, "y": 0.44}, {"type": "position", "time": 777917, "x": null, "y": 0.44}, {"type": "position", "time": 777973, "x": null, "y": 0.44}, {"type": "position", "time": 778016, "x": null, "y": 0.44}, {"type": "position", "time": 778063, "x": null, "y": 0.44}, {"type": "position", "time": 778117, "x": null, "y": 0.44}, {"type": "position", "time": 778164, "x": null, "y": 0.44}, {"type": "position", "time": 778217, "x": null, "y": 0.44}, {"type": "position", "time": 778264, "x": null, "y": 0.44}, {"type": "position", "time": 778317, "x": null, "y": 0.44}, {"type": "position", "time": 778364, "x": null, "y": 0.44}, {"type": "position", "time": 778417, "x": null, "y": 0.44}, {"type": "position", "time": 778464, "x": null, "y": 0.44}, {"type": "position", "time": 778533, "x": null, "y": 0.44}, {"type": "position", "time": 778561, "x": null, "y": 0.44}, {"type": "position", "time": 778609, "x": null, "y": 0.44}, {"type": "position", "time": 778660, "x": null, "y": 0.44}, {"type": "position", "time": 778717, "x": null, "y": 0.44}, {"type": "position", "time": 778764, "x": null, "y": 0.44}, {"type": "position", "time": 778810, "x": null, "y": 0.44}, {"type": "position", "time": 778873, "x": null, "y": 0.44}, {"type": "position", "time": 778917, "x": null, "y": 0.44}, {"type": "position", "time": 778973, "x": null, "y": 0.44}, {"type": "position", "time": 779018, "x": null, "y": 0.44}, {"type": "position", "time": 779064, "x": null, "y": 0.44}, {"type": "position", "time": 779117, "x": null, "y": 0.44}, {"type": "position", "time": 779164, "x": null, "y": 0.44}, {"type": "position", "time": 779218, "x": null, "y": 0.44}, {"type": "position", "time": 779264, "x": null, "y": 0.44}, {"type": "position", "time": 779318, "x": null, "y": 0.44}, {"type": "position", "time": 779365, "x": null, "y": 0.44}, {"type": "position", "time": 779418, "x": null, "y": 0.44}, {"type": "position", "time": 779464, "x": null, "y": 0.44}, {"type": "position", "time": 779518, "x": null, "y": 0.44}, {"type": "position", "time": 779564, "x": null, "y": 0.44}, {"type": "position", "time": 779618, "x": null, "y": 0.44}, {"type": "position", "time": 779665, "x": null, "y": 0.44}, {"type": "position", "time": 779718, "x": null, "y": 0.44}, {"type": "position", "time": 779765, "x": null, "y": 0.44}, {"type": "position", "time": 779818, "x": null, "y": 0.44}, {"type": "position", "time": 779865, "x": null, "y": 0.44}, {"type": "position", "time": 779918, "x": null, "y": 0.44}, {"type": "position", "time": 779962, "x": null, "y": 0.44}, {"type": "position", "time": 780018, "x": null, "y": 0.44}, {"type": "position", "time": 780065, "x": null, "y": 0.44}, {"type": "position", "time": 780118, "x": null, "y": 0.44}, {"type": "position", "time": 780165, "x": null, "y": 0.44}, {"type": "position", "time": 780218, "x": null, "y": 0.44}, {"type": "position", "time": 780265, "x": null, "y": 0.44}, {"type": "position", "time": 780318, "x": null, "y": 0.44}, {"type": "position", "time": 780365, "x": null, "y": 0.44}, {"type": "position", "time": 780418, "x": null, "y": 0.44}, {"type": "position", "time": 780465, "x": null, "y": 0.44}, {"type": "position", "time": 780519, "x": null, "y": 0.44}, {"type": "position", "time": 780566, "x": null, "y": 0.44}, {"type": "position", "time": 780619, "x": null, "y": 0.44}, {"type": "position", "time": 780665, "x": null, "y": 0.44}, {"type": "position", "time": 780718, "x": null, "y": 0.44}, {"type": "position", "time": 780765, "x": null, "y": 0.44}, {"type": "position", "time": 780818, "x": null, "y": 0.44}, {"type": "position", "time": 780865, "x": null, "y": 0.44}, {"type": "position", "time": 780919, "x": null, "y": 0.44}, {"type": "position", "time": 780963, "x": null, "y": 0.44}, {"type": "position", "time": 781018, "x": null, "y": 0.44}, {"type": "position", "time": 781065, "x": null, "y": 0.44}, {"type": "position", "time": 781118, "x": null, "y": 0.44}, {"type": "position", "time": 781165, "x": null, "y": 0.44}, {"type": "position", "time": 781218, "x": null, "y": 0.44}, {"type": "position", "time": 781265, "x": null, "y": 0.44}, {"type": "position", "time": 781318, "x": null, "y": 0.44}, {"type": "position", "time": 781365, "x": null, "y": 0.44}, {"type": "position", "time": 781418, "x": null, "y": 0.44}, {"type": "position", "time": 781465, "x": null, "y": 0.44}, {"type": "position", "time": 781518, "x": null, "y": 0.44}, {"type": "position", "time": 781565, "x": null, "y": 0.44}, {"type": "position", "time": 781618, "x": null, "y": 0.44}, {"type": "position", "time": 781665, "x": null, "y": 0.44}, {"type": "position", "time": 781718, "x": null, "y": 0.44}, {"type": "position", "time": 781765, "x": null, "y": 0.44}, {"type": "position", "time": 781803, "x": null, "y": 0.44}, {"type": "position", "time": 781865, "x": null, "y": 0.44}, {"type": "position", "time": 781919, "x": null, "y": 0.44}, {"type": "position", "time": 781962, "x": null, "y": 0.44}, {"type": "position", "time": 782019, "x": null, "y": 0.44}, {"type": "position", "time": 782066, "x": null, "y": 0.44}, {"type": "position", "time": 782118, "x": null, "y": 0.44}, {"type": "position", "time": 782165, "x": null, "y": 0.44}, {"type": "position", "time": 782219, "x": null, "y": 0.44}, {"type": "position", "time": 782265, "x": null, "y": 0.44}, {"type": "position", "time": 782319, "x": null, "y": 0.44}, {"type": "position", "time": 782365, "x": null, "y": 0.44}, {"type": "position", "time": 782419, "x": null, "y": 0.44}, {"type": "position", "time": 782466, "x": null, "y": 0.44}, {"type": "position", "time": 782519, "x": null, "y": 0.44}, {"type": "position", "time": 782565, "x": null, "y": 0.44}, {"type": "position", "time": 782619, "x": null, "y": 0.44}, {"type": "position", "time": 782666, "x": null, "y": 0.44}, {"type": "position", "time": 782719, "x": null, "y": 0.44}, {"type": "position", "time": 782765, "x": null, "y": 0.44}, {"type": "position", "time": 782819, "x": null, "y": 0.44}, {"type": "position", "time": 782866, "x": null, "y": 0.44}, {"type": "position", "time": 782919, "x": null, "y": 0.44}, {"type": "position", "time": 782963, "x": null, "y": 0.44}, {"type": "position", "time": 783019, "x": null, "y": 0.44}, {"type": "position", "time": 783066, "x": null, "y": 0.44}, {"type": "position", "time": 783119, "x": null, "y": 0.44}, {"type": "position", "time": 783166, "x": null, "y": 0.44}, {"type": "position", "time": 783219, "x": null, "y": 0.44}, {"type": "position", "time": 783266, "x": null, "y": 0.44}, {"type": "position", "time": 783319, "x": null, "y": 0.44}, {"type": "position", "time": 783366, "x": null, "y": 0.44}, {"type": "position", "time": 783404, "x": null, "y": 0.44}, {"type": "position", "time": 783467, "x": null, "y": 0.44}, {"type": "position", "time": 783519, "x": null, "y": 0.44}, {"type": "position", "time": 783565, "x": null, "y": 0.44}, {"type": "position", "time": 783619, "x": null, "y": 0.44}, {"type": "position", "time": 783666, "x": null, "y": 0.44}, {"type": "position", "time": 783719, "x": null, "y": 0.44}, {"type": "position", "time": 783766, "x": null, "y": 0.44}, {"type": "position", "time": 783819, "x": null, "y": 0.44}, {"type": "position", "time": 783866, "x": null, "y": 0.44}, {"type": "position", "time": 783919, "x": null, "y": 0.44}, {"type": "position", "time": 783959, "x": null, "y": 0.44}, {"type": "position", "time": 784019, "x": null, "y": 0.44}, {"type": "position", "time": 784066, "x": null, "y": 0.44}, {"type": "position", "time": 784119, "x": null, "y": 0.44}, {"type": "position", "time": 784166, "x": null, "y": 0.44}, {"type": "position", "time": 784219, "x": null, "y": 0.44}, {"type": "position", "time": 784266, "x": null, "y": 0.44}, {"type": "position", "time": 784320, "x": null, "y": 0.44}, {"type": "position", "time": 784367, "x": null, "y": 0.44}, {"type": "position", "time": 784419, "x": null, "y": 0.44}, {"type": "position", "time": 784466, "x": null, "y": 0.44}, {"type": "position", "time": 784503, "x": null, "y": 0.44}, {"type": "position", "time": 784550, "x": null, "y": 0.44}, {"type": "position", "time": 784619, "x": null, "y": 0.44}, {"type": "position", "time": 784666, "x": null, "y": 0.44}, {"type": "position", "time": 784720, "x": null, "y": 0.44}, {"type": "position", "time": 784766, "x": null, "y": 0.44}, {"type": "position", "time": 784819, "x": null, "y": 0.44}, {"type": "position", "time": 784866, "x": null, "y": 0.44}, {"type": "position", "time": 784919, "x": null, "y": 0.44}, {"type": "position", "time": 784959, "x": null, "y": 0.44}, {"type": "position", "time": 785020, "x": null, "y": 0.44}, {"type": "position", "time": 785067, "x": null, "y": 0.44}, {"type": "position", "time": 785120, "x": null, "y": 0.44}, {"type": "position", "time": 785167, "x": null, "y": 0.44}, {"type": "position", "time": 785219, "x": null, "y": 0.44}, {"type": "position", "time": 785266, "x": null, "y": 0.44}, {"type": "position", "time": 785319, "x": null, "y": 0.44}, {"type": "position", "time": 785366, "x": null, "y": 0.44}, {"type": "position", "time": 785420, "x": null, "y": 0.44}, {"type": "position", "time": 785466, "x": null, "y": 0.44}, {"type": "position", "time": 785520, "x": null, "y": 0.44}, {"type": "position", "time": 785567, "x": null, "y": 0.44}, {"type": "position", "time": 785620, "x": null, "y": 0.44}, {"type": "position", "time": 785667, "x": null, "y": 0.44}, {"type": "position", "time": 785720, "x": null, "y": 0.44}, {"type": "position", "time": 785766, "x": null, "y": 0.44}, {"type": "position", "time": 785820, "x": null, "y": 0.44}, {"type": "position", "time": 785867, "x": null, "y": 0.44}, {"type": "position", "time": 785920, "x": null, "y": 0.44}, {"type": "position", "time": 785960, "x": null, "y": 0.44}, {"type": "position", "time": 786020, "x": null, "y": 0.44}, {"type": "position", "time": 786067, "x": null, "y": 0.44}, {"type": "position", "time": 786120, "x": null, "y": 0.44}, {"type": "position", "time": 786167, "x": null, "y": 0.44}, {"type": "position", "time": 786220, "x": null, "y": 0.44}, {"type": "position", "time": 786267, "x": null, "y": 0.44}, {"type": "position", "time": 786320, "x": null, "y": 0.44}, {"type": "position", "time": 786367, "x": null, "y": 0.44}, {"type": "position", "time": 786420, "x": null, "y": 0.44}, {"type": "position", "time": 786467, "x": null, "y": 0.44}, {"type": "position", "time": 786520, "x": null, "y": 0.44}, {"type": "position", "time": 786567, "x": null, "y": 0.44}, {"type": "position", "time": 786620, "x": null, "y": 0.44}, {"type": "position", "time": 786667, "x": null, "y": 0.44}, {"type": "position", "time": 786720, "x": null, "y": 0.44}, {"type": "position", "time": 786767, "x": null, "y": 0.44}, {"type": "position", "time": 786820, "x": null, "y": 0.44}, {"type": "position", "time": 786867, "x": null, "y": 0.44}, {"type": "position", "time": 786920, "x": null, "y": 0.44}, {"type": "position", "time": 786960, "x": null, "y": 0.44}, {"type": "position", "time": 787020, "x": null, "y": 0.44}, {"type": "position", "time": 787067, "x": null, "y": 0.44}, {"type": "position", "time": 787120, "x": null, "y": 0.44}, {"type": "position", "time": 787167, "x": null, "y": 0.44}, {"type": "position", "time": 787220, "x": null, "y": 0.44}, {"type": "position", "time": 787267, "x": null, "y": 0.44}, {"type": "position", "time": 787320, "x": null, "y": 0.44}, {"type": "position", "time": 787366, "x": null, "y": 0.44}, {"type": "position", "time": 787420, "x": null, "y": 0.44}, {"type": "position", "time": 787467, "x": null, "y": 0.44}, {"type": "position", "time": 787520, "x": null, "y": 0.44}, {"type": "position", "time": 787559, "x": null, "y": 0.44}, {"type": "position", "time": 787620, "x": null, "y": 0.44}, {"type": "position", "time": 787667, "x": null, "y": 0.44}, {"type": "position", "time": 787720, "x": null, "y": 0.44}, {"type": "position", "time": 787767, "x": null, "y": 0.44}, {"type": "position", "time": 787820, "x": null, "y": 0.44}, {"type": "position", "time": 787867, "x": null, "y": 0.44}, {"type": "position", "time": 787920, "x": null, "y": 0.44}, {"type": "position", "time": 787960, "x": null, "y": 0.44}, {"type": "position", "time": 788020, "x": null, "y": 0.44}, {"type": "position", "time": 788067, "x": null, "y": 0.44}, {"type": "position", "time": 788120, "x": null, "y": 0.44}, {"type": "position", "time": 788167, "x": null, "y": 0.44}, {"type": "position", "time": 788220, "x": null, "y": 0.44}, {"type": "position", "time": 788267, "x": null, "y": 0.44}, {"type": "position", "time": 788320, "x": null, "y": 0.44}, {"type": "position", "time": 788351, "x": null, "y": 0.44}, {"type": "position", "time": 788420, "x": null, "y": 0.44}, {"type": "position", "time": 788467, "x": null, "y": 0.44}, {"type": "position", "time": 788520, "x": null, "y": 0.44}, {"type": "position", "time": 788567, "x": null, "y": 0.44}, {"type": "position", "time": 788621, "x": null, "y": 0.44}, {"type": "position", "time": 788667, "x": null, "y": 0.44}, {"type": "position", "time": 788720, "x": null, "y": 0.44}, {"type": "position", "time": 788767, "x": null, "y": 0.44}, {"type": "position", "time": 788820, "x": null, "y": 0.44}, {"type": "position", "time": 788867, "x": null, "y": 0.44}, {"type": "position", "time": 788921, "x": null, "y": 0.44}, {"type": "position", "time": 788961, "x": null, "y": 0.44}, {"type": "position", "time": 789020, "x": null, "y": 0.44}, {"type": "position", "time": 789067, "x": null, "y": 0.44}, {"type": "position", "time": 789121, "x": null, "y": 0.44}, {"type": "position", "time": 789168, "x": null, "y": 0.44}, {"type": "position", "time": 789221, "x": null, "y": 0.44}, {"type": "position", "time": 789268, "x": null, "y": 0.44}, {"type": "position", "time": 789321, "x": null, "y": 0.44}, {"type": "position", "time": 789368, "x": null, "y": 0.44}, {"type": "position", "time": 789421, "x": null, "y": 0.44}, {"type": "position", "time": 789468, "x": null, "y": 0.44}, {"type": "position", "time": 789568, "x": null, "y": 0.44}, {"type": "position", "time": 789609, "x": null, "y": 0.44}, {"type": "position", "time": 789672, "x": null, "y": 0.44}, {"type": "position", "time": 789721, "x": null, "y": 0.44}, {"type": "position", "time": 789768, "x": null, "y": 0.44}, {"type": "position", "time": 789821, "x": null, "y": 0.44}, {"type": "position", "time": 789868, "x": null, "y": 0.44}, {"type": "position", "time": 789922, "x": null, "y": 0.44}, {"type": "position", "time": 789961, "x": null, "y": 0.44}, {"type": "position", "time": 790021, "x": null, "y": 0.44}, {"type": "position", "time": 790068, "x": null, "y": 0.44}, {"type": "position", "time": 790121, "x": null, "y": 0.44}, {"type": "position", "time": 790168, "x": null, "y": 0.44}, {"type": "position", "time": 790221, "x": null, "y": 0.44}, {"type": "position", "time": 790268, "x": null, "y": 0.44}, {"type": "position", "time": 790322, "x": null, "y": 0.44}, {"type": "position", "time": 790368, "x": null, "y": 0.44}, {"type": "position", "time": 790422, "x": null, "y": 0.44}, {"type": "position", "time": 790469, "x": null, "y": 0.44}, {"type": "position", "time": 790522, "x": null, "y": 0.44}, {"type": "position", "time": 790569, "x": null, "y": 0.44}, {"type": "position", "time": 790622, "x": null, "y": 0.44}, {"type": "position", "time": 790669, "x": null, "y": 0.44}, {"type": "position", "time": 790722, "x": null, "y": 0.44}, {"type": "position", "time": 790769, "x": null, "y": 0.44}, {"type": "position", "time": 790822, "x": null, "y": 0.44}, {"type": "position", "time": 790869, "x": null, "y": 0.44}, {"type": "position", "time": 790922, "x": null, "y": 0.44}, {"type": "position", "time": 790962, "x": null, "y": 0.44}, {"type": "position", "time": 791023, "x": null, "y": 0.44}, {"type": "position", "time": 791069, "x": null, "y": 0.44}, {"type": "position", "time": 791123, "x": null, "y": 0.44}, {"type": "position", "time": 791170, "x": null, "y": 0.44}, {"type": "position", "time": 791223, "x": null, "y": 0.44}, {"type": "position", "time": 791270, "x": null, "y": 0.44}, {"type": "position", "time": 791323, "x": null, "y": 0.44}, {"type": "position", "time": 791370, "x": null, "y": 0.44}, {"type": "position", "time": 791423, "x": null, "y": 0.44}, {"type": "position", "time": 791470, "x": null, "y": 0.44}, {"type": "position", "time": 791523, "x": null, "y": 0.44}, {"type": "position", "time": 791569, "x": null, "y": 0.44}, {"type": "position", "time": 791623, "x": null, "y": 0.44}, {"type": "position", "time": 791670, "x": null, "y": 0.44}, {"type": "position", "time": 791723, "x": null, "y": 0.44}, {"type": "position", "time": 791770, "x": null, "y": 0.44}, {"type": "position", "time": 791823, "x": null, "y": 0.44}, {"type": "position", "time": 791870, "x": null, "y": 0.44}, {"type": "position", "time": 791923, "x": null, "y": 0.44}, {"type": "position", "time": 791959, "x": null, "y": 0.44}, {"type": "position", "time": 792023, "x": null, "y": 0.44}, {"type": "position", "time": 792070, "x": null, "y": 0.44}, {"type": "position", "time": 792123, "x": null, "y": 0.44}, {"type": "position", "time": 792170, "x": null, "y": 0.44}, {"type": "position", "time": 792208, "x": null, "y": 0.44}, {"type": "position", "time": 792271, "x": null, "y": 0.44}, {"type": "position", "time": 792324, "x": null, "y": 0.44}, {"type": "position", "time": 792371, "x": null, "y": 0.44}, {"type": "position", "time": 792408, "x": null, "y": 0.44}, {"type": "position", "time": 792455, "x": null, "y": 0.44}, {"type": "position", "time": 792524, "x": null, "y": 0.44}, {"type": "position", "time": 792571, "x": null, "y": 0.44}, {"type": "position", "time": 792624, "x": null, "y": 0.44}, {"type": "position", "time": 792671, "x": null, "y": 0.44}, {"type": "position", "time": 792724, "x": null, "y": 0.44}, {"type": "position", "time": 792759, "x": null, "y": 0.44}, {"type": "position", "time": 792809, "x": null, "y": 0.44}, {"type": "position", "time": 792871, "x": null, "y": 0.44}, {"type": "position", "time": 792924, "x": null, "y": 0.44}, {"type": "position", "time": 792959, "x": null, "y": 0.44}, {"type": "position", "time": 793024, "x": null, "y": 0.44}, {"type": "position", "time": 793071, "x": null, "y": 0.44}, {"type": "position", "time": 793124, "x": null, "y": 0.44}, {"type": "position", "time": 793171, "x": null, "y": 0.44}, {"type": "position", "time": 793224, "x": null, "y": 0.44}, {"type": "position", "time": 793271, "x": null, "y": 0.44}, {"type": "position", "time": 793324, "x": null, "y": 0.44}, {"type": "position", "time": 793371, "x": null, "y": 0.44}, {"type": "p