{"ApprovalTime": "2016-03-10T21:25:27Z", "SubmitTime": "2016-03-10T21:24:17Z", "AssignmentId": "3RUIQRXJBBO0LWDJX9SHDPQKD5TLLT", "HITId": "38G0E1M85M53D7EEUOHN21OJ7HQVU5", "answers": {"data": {"trials": [{"story": "cooking", "time": 114057, "name": "Aaron", "rt": 23584, "blocknum": 0, "qtype": "probability", "response": 0.68, "trialnum": 1, "gender": "male", "qnum": 0}, {"story": "cooking", "time": 114057, "name": "Aaron", "rt": 23584, "blocknum": 0, "qtype": "ungrammatical", "trialnum": 1, "gender": "male", "qnum": 0}, {"story": "cooking", "time": 146866, "name": "Charles", "rt": 32800, "blocknum": 0, "qtype": "explanation", "response": "He didn't pay attention to the lessons.", "trialnum": 2, "gender": "male", "qnum": 1}, {"story": "cooking", "time": 154323, "name": "Charles", "rt": 7436, "blocknum": 0, "qtype": "probability", "response": 0.94, "trialnum": 3, "gender": "male", "qnum": 2}, {"story": "cooking", "time": 154323, "name": "Charles", "rt": 7436, "blocknum": 0, "qtype": "ungrammatical", "trialnum": 3, "gender": "male", "qnum": 2}, {"story": "cooking", "time": 181604, "name": "Logan", "rt": 27267, "blocknum": 0, "qtype": "probability", "response": 0.15, "trialnum": 4, "gender": "male", "qnum": 3}, {"story": "cooking", "time": 181604, "name": "Logan", "rt": 27267, "blocknum": 0, "qtype": "ungrammatical", "response": true, "trialnum": 4, "gender": "male", "qnum": 3}, {"story": "cooking", "time": 207977, "name": "Kelsey", "rt": 26362, "blocknum": 0, "qtype": "probability", "response": 0.67, "trialnum": 5, "gender": "female", "qnum": 4}, {"story": "cooking", "time": 207977, "name": "Kelsey", "rt": 26362, "blocknum": 0, "qtype": "ungrammatical", "response": true, "trialnum": 5, "gender": "female", "qnum": 4}, {"story": "cooking", "time": 380499, "name": "Juan", "rt": 172513, "blocknum": 0, "qtype": "probability", "response": 0.69, "trialnum": 6, "gender": "male", "qnum": 5}, {"story": "cooking", "time": 380499, "name": "Juan", "rt": 172513, "blocknum": 0, "qtype": "ungrammatical", "response": false, "trialnum": 6, "gender": "male", "qnum": 5}, {"story": "coffee", "time": 388052, "name": "Kenneth", "rt": 7534, "blocknum": 1, "qtype": "probability", "response": 0.51, "trialnum": 8, "gender": "male", "qnum": 0}, {"story": "coffee", "time": 388052, "name": "Kenneth", "rt": 7534, "blocknum": 1, "qtype": "ungrammatical", "trialnum": 8, "gender": "male", "qnum": 0}, {"story": "coffee", "time": 407780, "name": "Madison", "rt": 19724, "blocknum": 1, "qtype": "explanation", "response": "the caffeine didn't have the desired effect.", "trialnum": 9, "gender": "female", "qnum": 1}, {"story": "coffee", "time": 412446, "name": "Madison", "rt": 4651, "blocknum": 1, "qtype": "probability", "response": 0.47, "trialnum": 10, "gender": "female", "qnum": 2}, {"story": "coffee", "time": 412446, "name": "Madison", "rt": 4651, "blocknum": 1, "qtype": "ungrammatical", "trialnum": 10, "gender": "female", "qnum": 2}, {"story": "coffee", "time": 430849, "name": "Luis", "rt": 18394, "blocknum": 1, "qtype": "probability", "response": 0.51, "trialnum": 11, "gender": "male", "qnum": 3}, {"story": "coffee", "time": 430849, "name": "Luis", "rt": 18394, "blocknum": 1, "qtype": "ungrammatical", "response": false, "trialnum": 11, "gender": "male", "qnum": 3}, {"story": "coffee", "time": 442250, "name": "Heather", "rt": 11393, "blocknum": 1, "qtype": "probability", "response": 0.5, "trialnum": 12, "gender": "female", "qnum": 4}, {"story": "coffee", "time": 442250, "name": "Heather", "rt": 11393, "blocknum": 1, "qtype": "ungrammatical", "response": true, "trialnum": 12, "gender": "female", "qnum": 4}, {"story": "coffee", "time": 455094, "name": "Brittany", "rt": 12835, "blocknum": 1, "qtype": "probability", "response": 0.2, "trialnum": 13, "gender": "female", "qnum": 5}, {"story": "coffee", "time": 455094, "name": "Brittany", "rt": 12835, "blocknum": 1, "qtype": "ungrammatical", "response": false, "trialnum": 13, "gender": "female", "qnum": 5}, {"story": "reading", "time": 461733, "name": "Amanda", "rt": 6627, "blocknum": 2, "qtype": "probability", "response": 0.49, "trialnum": 15, "gender": "female", "qnum": 0}, {"story": "reading", "time": 461733, "name": "Amanda", "rt": 6627, "blocknum": 2, "qtype": "ungrammatical", "trialnum": 15, "gender": "female", "qnum": 0}, {"story": "reading", "time": 484108, "name": "Hannah", "rt": 22370, "blocknum": 2, "qtype": "explanation", "response": "there were no new words to be learned in the book.", "trialnum": 16, "gender": "female", "qnum": 1}, {"story": "reading", "time": 493317, "name": "Hannah", "rt": 9200, "blocknum": 2, "qtype": "probability", "response": 0.7, "trialnum": 17, "gender": "female", "qnum": 2}, {"story": "reading", "time": 493317, "name": "Hannah", "rt": 9200, "blocknum": 2, "qtype": "ungrammatical", "trialnum": 17, "gender": "female", "qnum": 2}, {"story": "reading", "time": 507009, "name": "Ethan", "rt": 13683, "blocknum": 2, "qtype": "probability", "response": 0.55, "trialnum": 18, "gender": "male", "qnum": 3}, {"story": "reading", "time": 507009, "name": "Ethan", "rt": 13683, "blocknum": 2, "qtype": "ungrammatical", "response": true, "trialnum": 18, "gender": "male", "qnum": 3}, {"story": "reading", "time": 515446, "name": "Lindsey", "rt": 8425, "blocknum": 2, "qtype": "probability", "response": 0.64, "trialnum": 19, "gender": "female", "qnum": 4}, {"story": "reading", "time": 515446, "name": "Lindsey", "rt": 8425, "blocknum": 2, "qtype": "ungrammatical", "response": false, "trialnum": 19, "gender": "female", "qnum": 4}, {"story": "reading", "time": 526494, "name": "Courtney", "rt": 11040, "blocknum": 2, "qtype": "probability", "response": 0.66, "trialnum": 20, "gender": "female", "qnum": 5}, {"story": "reading", "time": 526494, "name": "Courtney", "rt": 11040, "blocknum": 2, "qtype": "ungrammatical", "response": false, "trialnum": 20, "gender": "female", "qnum": 5}, {"story": "beach", "time": 540140, "name": "Kyle", "rt": 13631, "blocknum": 3, "qtype": "probability", "response": 0.88, "trialnum": 22, "gender": "male", "qnum": 0}, {"story": "beach", "time": 540140, "name": "Kyle", "rt": 13631, "blocknum": 3, "qtype": "ungrammatical", "trialnum": 22, "gender": "male", "qnum": 0}, {"story": "beach", "time": 554659, "name": "Cody", "rt": 14514, "blocknum": 3, "qtype": "explanation", "response": "he wore sunblock", "trialnum": 23, "gender": "male", "qnum": 1}, {"story": "beach", "time": 558918, "name": "Cody", "rt": 4250, "blocknum": 3, "qtype": "probability", "response": 0.9, "trialnum": 24, "gender": "male", "qnum": 2}, {"story": "beach", "time": 558918, "name": "Cody", "rt": 4250, "blocknum": 3, "qtype": "ungrammatical", "trialnum": 24, "gender": "male", "qnum": 2}, {"story": "beach", "time": 566845, "name": "Scott", "rt": 7917, "blocknum": 3, "qtype": "probability", "response": 0.92, "trialnum": 25, "gender": "male", "qnum": 3}, {"story": "beach", "time": 566845, "name": "Scott", "rt": 7917, "blocknum": 3, "qtype": "ungrammatical", "response": false, "trialnum": 25, "gender": "male", "qnum": 3}, {"story": "beach", "time": 576952, "name": "Zach", "rt": 10099, "blocknum": 3, "qtype": "probability", "response": 0.93, "trialnum": 26, "gender": "male", "qnum": 4}, {"story": "beach", "time": 576952, "name": "Zach", "rt": 10099, "blocknum": 3, "qtype": "ungrammatical", "response": true, "trialnum": 26, "gender": "male", "qnum": 4}, {"story": "beach", "time": 587866, "name": "Gabriel", "rt": 10903, "blocknum": 3, "qtype": "probability", "response": 0.95, "trialnum": 27, "gender": "male", "qnum": 5}, {"story": "beach", "time": 587866, "name": "Gabriel", "rt": 10903, "blocknum": 3, "qtype": "ungrammatical", "response": false, "trialnum": 27, "gender": "male", "qnum": 5}, {"story": "fitness", "time": 594254, "name": "Katie", "rt": 6377, "blocknum": 4, "qtype": "probability", "response": 0.96, "trialnum": 29, "gender": "female", "qnum": 0}, {"story": "fitness", "time": 594254, "name": "Katie", "rt": 6377, "blocknum": 4, "qtype": "ungrammatical", "trialnum": 29, "gender": "female", "qnum": 0}, {"story": "fitness", "time": 617343, "name": "Joseph", "rt": 23085, "blocknum": 4, "qtype": "explanation", "response": "ate more calories than jogging burned", "trialnum": 30, "gender": "male", "qnum": 1}, {"story": "fitness", "time": 621470, "name": "Joseph", "rt": 4118, "blocknum": 4, "qtype": "probability", "response": 0.71, "trialnum": 31, "gender": "male", "qnum": 2}, {"story": "fitness", "time": 621470, "name": "Joseph", "rt": 4118, "blocknum": 4, "qtype": "ungrammatical", "trialnum": 31, "gender": "male", "qnum": 2}, {"story": "fitness", "time": 632188, "name": "Jose", "rt": 10709, "blocknum": 4, "qtype": "probability", "response": 0.89, "trialnum": 32, "gender": "male", "qnum": 3}, {"story": "fitness", "time": 632188, "name": "Jose", "rt": 10709, "blocknum": 4, "qtype": "ungrammatical", "response": true, "trialnum": 32, "gender": "male", "qnum": 3}, {"story": "fitness", "time": 643269, "name": "Jared", "rt": 11070, "blocknum": 4, "qtype": "probability", "response": 0.9, "trialnum": 33, "gender": "male", "qnum": 4}, {"story": "fitness", "time": 643269, "name": "Jared", "rt": 11070, "blocknum": 4, "qtype": "ungrammatical", "response": true, "trialnum": 33, "gender": "male", "qnum": 4}, {"story": "fitness", "time": 653118, "name": "Nathan", "rt": 9840, "blocknum": 4, "qtype": "probability", "response": 1, "trialnum": 34, "gender": "male", "qnum": 5}, {"story": "fitness", "time": 653118, "name": "Nathan", "rt": 9840, "blocknum": 4, "qtype": "ungrammatical", "response": false, "trialnum": 34, "gender": "male", "qnum": 5}, {"story": "painting", "time": 664641, "name": "Cameron", "rt": 11513, "blocknum": 5, "qtype": "probability", "response": 0.99, "trialnum": 36, "gender": "male", "qnum": 0}, {"story": "painting", "time": 664641, "name": "Cameron", "rt": 11513, "blocknum": 5, "qtype": "ungrammatical", "trialnum": 36, "gender": "male", "qnum": 0}, {"story": "painting", "time": 674126, "name": "Ian", "rt": 9481, "blocknum": 5, "qtype": "explanation", "response": "he was very careful", "trialnum": 37, "gender": "male", "qnum": 1}, {"story": "painting", "time": 678249, "name": "Ian", "rt": 4115, "blocknum": 5, "qtype": "probability", "response": 0.93, "trialnum": 38, "gender": "male", "qnum": 2}, {"story": "painting", "time": 678249, "name": "Ian", "rt": 4115, "blocknum": 5, "qtype": "ungrammatical", "trialnum": 38, "gender": "male", "qnum": 2}, {"story": "painting", "time": 689102, "name": "Samantha", "rt": 10845, "blocknum": 5, "qtype": "probability", "response": 0.94, "trialnum": 39, "gender": "female", "qnum": 3}, {"story": "painting", "time": 689102, "name": "Samantha", "rt": 10845, "blocknum": 5, "qtype": "ungrammatical", "response": false, "trialnum": 39, "gender": "female", "qnum": 3}, {"story": "painting", "time": 698784, "name": "Anthony", "rt": 9675, "blocknum": 5, "qtype": "probability", "response": 0.76, "trialnum": 40, "gender": "male", "qnum": 4}, {"story": "painting", "time": 698784, "name": "Anthony", "rt": 9675, "blocknum": 5, "qtype": "ungrammatical", "response": false, "trialnum": 40, "gender": "male", "qnum": 4}, {"story": "painting", "time": 705845, "name": "Maria", "rt": 7052, "blocknum": 5, "qtype": "probability", "response": 0.97, "trialnum": 41, "gender": "female", "qnum": 5}, {"story": "painting", "time": 705845, "name": "Maria", "rt": 7052, "blocknum": 5, "qtype": "ungrammatical", "response": false, "trialnum": 41, "gender": "female", "qnum": 5}, {"story": "guitar", "time": 714705, "name": "Devin", "rt": 8850, "blocknum": 6, "qtype": "probability", "response": 0.83, "trialnum": 43, "gender": "male", "qnum": 0}, {"story": "guitar", "time": 714705, "name": "Devin", "rt": 8850, "blocknum": 6, "qtype": "ungrammatical", "trialnum": 43, "gender": "male", "qnum": 0}, {"story": "guitar", "time": 728022, "name": "Erin", "rt": 13313, "blocknum": 6, "qtype": "explanation", "response": "she took care of them", "trialnum": 44, "gender": "female", "qnum": 1}, {"story": "guitar", "time": 733512, "name": "Erin", "rt": 5483, "blocknum": 6, "qtype": "probability", "response": 0.5, "trialnum": 45, "gender": "female", "qnum": 2}, {"story": "guitar", "time": 733512, "name": "Erin", "rt": 5483, "blocknum": 6, "qtype": "ungrammatical", "trialnum": 45, "gender": "female", "qnum": 2}, {"story": "guitar", "time": 745339, "name": "Greg", "rt": 11817, "blocknum": 6, "qtype": "probability", "response": 0.76, "trialnum": 46, "gender": "male", "qnum": 3}, {"story": "guitar", "time": 745339, "name": "Greg", "rt": 11817, "blocknum": 6, "qtype": "ungrammatical", "response": true, "trialnum": 46, "gender": "male", "qnum": 3}, {"story": "guitar", "time": 803465, "name": "Derek", "rt": 58113, "blocknum": 6, "qtype": "probability", "response": 0.88, "trialnum": 47, "gender": "male", "qnum": 4}, {"story": "guitar", "time": 803465, "name": "Derek", "rt": 58113, "blocknum": 6, "qtype": "ungrammatical", "response": true, "trialnum": 47, "gender": "male", "qnum": 4}, {"story": "guitar", "time": 810480, "name": "Rebecca", "rt": 6999, "blocknum": 6, "qtype": "probability", "response": 0.85, "trialnum": 48, "gender": "female", "qnum": 5}, {"story": "guitar", "time": 810480, "name": "Rebecca", "rt": 6999, "blocknum": 6, "qtype": "ungrammatical", "response": true, "trialnum": 48, "gender": "female", "qnum": 5}, {"story": "insomnia", "time": 819236, "name": "John", "rt": 8740, "blocknum": 7, "qtype": "probability", "response": 0.67, "trialnum": 50, "gender": "male", "qnum": 0}, {"story": "insomnia", "time": 819236, "name": "John", "rt": 8740, "blocknum": 7, "qtype": "ungrammatical", "trialnum": 50, "gender": "male", "qnum": 0}, {"story": "insomnia", "time": 831305, "name": "Alexis", "rt": 12064, "blocknum": 7, "qtype": "explanation", "response": "stress affects her differently", "trialnum": 51, "gender": "female", "qnum": 1}, {"story": "insomnia", "time": 835823, "name": "Alexis", "rt": 4508, "blocknum": 7, "qtype": "probability", "response": 0.53, "trialnum": 52, "gender": "female", "qnum": 2}, {"story": "insomnia", "time": 835823, "name": "Alexis", "rt": 4508, "blocknum": 7, "qtype": "ungrammatical", "trialnum": 52, "gender": "female", "qnum": 2}, {"story": "insomnia", "time": 851358, "name": "Gabrielle", "rt": 15526, "blocknum": 7, "qtype": "probability", "response": 0.61, "trialnum": 53, "gender": "female", "qnum": 3}, {"story": "insomnia", "time": 851358, "name": "Gabrielle", "rt": 15526, "blocknum": 7, "qtype": "ungrammatical", "response": false, "trialnum": 53, "gender": "female", "qnum": 3}, {"story": "insomnia", "time": 863032, "name": "Marissa", "rt": 11666, "blocknum": 7, "qtype": "probability", "response": 0.81, "trialnum": 54, "gender": "female", "qnum": 4}, {"story": "insomnia", "time": 863032, "name": "Marissa", "rt": 11666, "blocknum": 7, "qtype": "ungrammatical", "response": true, "trialnum": 54, "gender": "female", "qnum": 4}, {"story": "insomnia", "time": 868516, "name": "Abigail", "rt": 5477, "blocknum": 7, "qtype": "probability", "response": 0.75, "trialnum": 55, "gender": "female", "qnum": 5}, {"story": "insomnia", "time": 868516, "name": "Abigail", "rt": 5477, "blocknum": 7, "qtype": "ungrammatical", "response": false, "trialnum": 55, "gender": "female", "qnum": 5}, {"story": "Japan", "time": 879569, "name": "Sean", "rt": 11042, "blocknum": 8, "qtype": "probability", "response": 0.76, "trialnum": 57, "gender": "male", "qnum": 0}, {"story": "Japan", "time": 879569, "name": "Sean", "rt": 11042, "blocknum": 8, "qtype": "ungrammatical", "trialnum": 57, "gender": "male", "qnum": 0}, {"story": "Japan", "time": 888570, "name": "James", "rt": 8996, "blocknum": 8, "qtype": "explanation", "response": "he was lucky", "trialnum": 58, "gender": "male", "qnum": 1}, {"story": "Japan", "time": 892775, "name": "James", "rt": 4196, "blocknum": 8, "qtype": "probability", "response": 0.79, "trialnum": 59, "gender": "male", "qnum": 2}, {"story": "Japan", "time": 892775, "name": "James", "rt": 4196, "blocknum": 8, "qtype": "ungrammatical", "trialnum": 59, "gender": "male", "qnum": 2}, {"story": "Japan", "time": 905903, "name": "Jasmine", "rt": 13119, "blocknum": 8, "qtype": "probability", "response": 0.79, "trialnum": 60, "gender": "female", "qnum": 3}, {"story": "Japan", "time": 905903, "name": "Jasmine", "rt": 13119, "blocknum": 8, "qtype": "ungrammatical", "response": true, "trialnum": 60, "gender": "female", "qnum": 3}, {"story": "Japan", "time": 916680, "name": "Kaitlyn", "rt": 10768, "blocknum": 8, "qtype": "probability", "response": 0.84, "trialnum": 61, "gender": "female", "qnum": 4}, {"story": "Japan", "time": 916680, "name": "Kaitlyn", "rt": 10768, "blocknum": 8, "qtype": "ungrammatical", "response": true, "trialnum": 61, "gender": "female", "qnum": 4}, {"story": "Japan", "time": 923879, "name": "Haley", "rt": 7192, "blocknum": 8, "qtype": "probability", "response": 0.84, "trialnum": 62, "gender": "female", "qnum": 5}, {"story": "Japan", "time": 923879, "name": "Haley", "rt": 7192, "blocknum": 8, "qtype": "ungrammatical", "response": true, "trialnum": 62, "gender": "female", "qnum": 5}], "events": [{"type": "position", "time": 493, "x": 0, "y": 0}, {"type": "position", "time": 1362, "x": 0, "y": 0}, {"type": "position", "time": 2360, "x": 0, "y": 0}, {"type": "position", "time": 3370, "x": 0, "y": 0}, {"type": "position", "time": 4360, "x": 0, "y": 0}, {"type": "position", "time": 5362, "x": 0, "y": 0}, {"type": "position", "time": 6367, "x": 0, "y": 0}, {"type": "position", "time": 7369, "x": 0, "y": 0}, {"type": "position", "time": 8365, "x": 0, "y": 0}, {"type": "position", "time": 9360, "x": 0, "y": 0}, {"type": "position", "time": 10370, "x": 0, "y": 0}, {"type": "position", "time": 11259, "x": 0, "y": 0}, {"type": "position", "time": 11311, "x": 0, "y": 0}, {"type": "position", "time": 11354, "x": 0, "y": 0}, {"type": "position", "time": 11400, "x": 0, "y": 0}, {"type": "position", "time": 11453, "x": 0, "y": 0}, {"type": "position", "time": 11500, "x": 0, "y": 0}, {"type": "position", "time": 11556, "x": 0, "y": 0}, {"type": "position", "time": 11603, "x": 0, "y": 0}, {"type": "position", "time": 11665, "x": 0, "y": 0}, {"type": "position", "time": 11712, "x": 0, "y": 0}, {"type": "position", "time": 11759, "x": 0, "y": 0}, {"type": "position", "time": 11806, "x": 0, "y": 0}, {"type": "position", "time": 11850, "x": 0, "y": 0}, {"type": "position", "time": 11900, "x": 0, "y": 0}, {"type": "position", "time": 11950, "x": 0, "y": 0}, {"type": "position", "time": 12000, "x": 0, "y": 0}, {"type": "position", "time": 12050, "x": 0, "y": 0}, {"type": "position", "time": 12100, "x": 0, "y": 0}, {"type": "position", "time": 12151, "x": 0, "y": 0}, {"type": "position", "time": 12201, "x": 0, "y": 0}, {"type": "position", "time": 12250, "x": 0, "y": 0}, {"type": "position", "time": 12300, "x": 0, "y": 0}, {"type": "position", "time": 12361, "x": 0, "y": 0}, {"type": "position", "time": 12400, "x": 0, "y": 0}, {"type": "position", "time": 12454, "x": 0, "y": 0}, {"type": "position", "time": 12501, "x": 0, "y": 0}, {"type": "position", "time": 12553, "x": 0, "y": 0}, {"type": "position", "time": 12600, "x": 0, "y": 0}, {"type": "position", "time": 12653, "x": 0, "y": 0}, {"type": "position", "time": 12701, "x": 0, "y": 0}, {"type": "position", "time": 12750, "x": 0, "y": 0}, {"type": "position", "time": 12800, "x": 0, "y": 0}, {"type": "position", "time": 12853, "x": 0, "y": 0}, {"type": "position", "time": 12900, "x": 0, "y": 0}, {"type": "position", "time": 12961, "x": 0, "y": 0}, {"type": "position", "time": 13000, "x": 0, "y": 0}, {"type": "position", "time": 13053, "x": 0, "y": 0}, {"type": "position", "time": 13100, "x": 0, "y": 0}, {"type": "position", "time": 13150, "x": 0, "y": 0}, {"type": "position", "time": 13214, "x": 0, "y": 0}, {"type": "position", "time": 13245, "x": 0, "y": 0}, {"type": "position", "time": 13292, "x": 0, "y": 0}, {"type": "position", "time": 13339, "x": 0, "y": 0}, {"type": "position", "time": 13400, "x": 0, "y": 0}, {"type": "position", "time": 13453, "x": 0, "y": 0}, {"type": "position", "time": 13500, "x": 0, "y": 0}, {"type": "position", "time": 13563, "x": 0, "y": 0}, {"type": "position", "time": 13610, "x": 0, "y": 0}, {"type": "position", "time": 13650, "x": 0, "y": 0}, {"type": "position", "time": 13708, "x": 0, "y": 0}, {"type": "position", "time": 13755, "x": 0, "y": 0}, {"type": "position", "time": 13802, "x": 0, "y": 0}, {"type": "position", "time": 13853, "x": 0, "y": 0}, {"type": "position", "time": 13900, "x": 0, "y": 0}, {"type": "position", "time": 13963, "x": 0, "y": 0}, {"type": "position", "time": 14010, "x": 0, "y": 0}, {"type": "position", "time": 14056, "x": 0, "y": 0}, {"type": "position", "time": 14100, "x": 0, "y": 0}, {"type": "position", "time": 14150, "x": 0, "y": 0}, {"type": "position", "time": 14200, "x": 0, "y": 0}, {"type": "position", "time": 14250, "x": 0, "y": 0}, {"type": "position", "time": 14311, "x": 0, "y": 0}, {"type": "position", "time": 14350, "x": 0, "y": 0}, {"type": "position", "time": 14400, "x": 0, "y": 0}, {"type": "position", "time": 14454, "x": 0, "y": 0}, {"type": "position", "time": 14503, "x": 0, "y": 0}, {"type": "position", "time": 14550, "x": 0, "y": 0}, {"type": "position", "time": 14600, "x": 0, "y": 0}, {"type": "position", "time": 14665, "x": 0, "y": 0}, {"type": "position", "time": 14734, "x": 0, "y": 0}, {"type": "position", "time": 14750, "x": 0, "y": 0}, {"type": "position", "time": 14801, "x": 0, "y": 0}, {"type": "position", "time": 14850, "x": 0, "y": 0}, {"type": "position", "time": 14900, "x": 0, "y": 0}, {"type": "position", "time": 14950, "x": 0, "y": 0}, {"type": "position", "time": 15000, "x": 0, "y": 0}, {"type": "position", "time": 15053, "x": 0, "y": 0}, {"type": "position", "time": 15100, "x": 0, "y": 0}, {"type": "position", "time": 15150, "x": 0, "y": 0}, {"type": "position", "time": 15203, "x": 0, "y": 0}, {"type": "position", "time": 15250, "x": 0, "y": 0}, {"type": "position", "time": 15313, "x": 0, "y": 0}, {"type": "position", "time": 15359, "x": 0, "y": 0}, {"type": "position", "time": 15400, "x": 0, "y": 0}, {"type": "position", "time": 15450, "x": 0, "y": 0}, {"type": "position", "time": 15500, "x": 0, "y": 0}, {"type": "position", "time": 15550, "x": 0, "y": 0}, {"type": "position", "time": 15600, "x": 0, "y": 0}, {"type": "position", "time": 15650, "x": 0, "y": 0}, {"type": "position", "time": 15700, "x": 0, "y": 0}, {"type": "position", "time": 15750, "x": 0, "y": 0}, {"type": "position", "time": 15800, "x": 0, "y": 0}, {"type": "position", "time": 15850, "x": 0, "y": 0}, {"type": "position", "time": 15913, "x": 0, "y": 0}, {"type": "position", "time": 15960, "x": 0, "y": 0}, {"type": "position", "time": 16008, "x": 0, "y": 0}, {"type": "position", "time": 16055, "x": 0, "y": 0}, {"type": "position", "time": 16101, "x": 0, "y": 0}, {"type": "position", "time": 16158, "x": 0, "y": 0}, {"type": "position", "time": 16200, "x": 0, "y": 0}, {"type": "position", "time": 16251, "x": 0, "y": 0}, {"type": "position", "time": 16300, "x": 0, "y": 0}, {"type": "position", "time": 16350, "x": 0, "y": 0}, {"type": "position", "time": 16400, "x": 0, "y": 0}, {"type": "position", "time": 16456, "x": 0, "y": 0}, {"type": "position", "time": 16503, "x": 0, "y": 0}, {"type": "position", "time": 16565, "x": 0, "y": 0}, {"type": "position", "time": 16612, "x": 0, "y": 0}, {"type": "position", "time": 16659, "x": 0, "y": 0}, {"type": "position", "time": 16711, "x": 0, "y": 0}, {"type": "position", "time": 16757, "x": 0, "y": 0}, {"type": "position", "time": 16800, "x": 0, "y": 0}, {"type": "position", "time": 16863, "x": 0, "y": 0}, {"type": "position", "time": 16910, "x": 0, "y": 0}, {"type": "position", "time": 16957, "x": 0, "y": 0}, {"type": "position", "time": 17004, "x": 0, "y": 0}, {"type": "position", "time": 17050, "x": 0, "y": 0}, {"type": "position", "time": 17113, "x": 0, "y": 0}, {"type": "position", "time": 17160, "x": 0, "y": 0}, {"type": "position", "time": 17207, "x": 0, "y": 0}, {"type": "position", "time": 17254, "x": 0, "y": 0}, {"type": "position", "time": 17300, "x": 0, "y": 0}, {"type": "position", "time": 17363, "x": 0, "y": 0}, {"type": "position", "time": 17404, "x": 0, "y": 0}, {"type": "position", "time": 17456, "x": 0, "y": 0}, {"type": "position", "time": 17503, "x": 0, "y": 0}, {"type": "position", "time": 17565, "x": 0, "y": 0}, {"type": "position", "time": 17612, "x": 0, "y": 0}, {"type": "position", "time": 17659, "x": 0, "y": 0}, {"type": "position", "time": 17706, "x": 0, "y": 0}, {"type": "position", "time": 17753, "x": 0, "y": 0}, {"type": "position", "time": 17815, "x": 0, "y": 0}, {"type": "position", "time": 17850, "x": 0, "y": 0}, {"type": "position", "time": 17900, "x": 0, "y": 0}, {"type": "position", "time": 17962, "x": 0, "y": 0}, {"type": "position", "time": 18001, "x": 0, "y": 0}, {"type": "position", "time": 18050, "x": 0, "y": 0}, {"type": "position", "time": 18113, "x": 0, "y": 0}, {"type": "position", "time": 18161, "x": 0, "y": 0}, {"type": "position", "time": 18207, "x": 0, "y": 0}, {"type": "position", "time": 18265, "x": 0, "y": 0}, {"type": "position", "time": 18312, "x": 0, "y": 0}, {"type": "position", "time": 18359, "x": 0, "y": 0}, {"type": "position", "time": 18402, "x": 0, "y": 0}, {"type": "position", "time": 18450, "x": 0, "y": 0}, {"type": "position", "time": 18507, "x": 0, "y": 0}, {"type": "position", "time": 18554, "x": 0, "y": 0}, {"type": "position", "time": 18601, "x": 0, "y": 0}, {"type": "position", "time": 18664, "x": 0, "y": 0}, {"type": "position", "time": 18711, "x": 0, "y": 0}, {"type": "position", "time": 18755, "x": 0, "y": 0}, {"type": "position", "time": 18802, "x": 0, "y": 0}, {"type": "position", "time": 18865, "x": 0, "y": 0}, {"type": "position", "time": 18912, "x": 0, "y": 0}, {"type": "position", "time": 18958, "x": 0, "y": 0}, {"type": "position", "time": 19005, "x": 0, "y": 0}, {"type": "position", "time": 19052, "x": 0, "y": 0}, {"type": "position", "time": 19115, "x": 0, "y": 0}, {"type": "position", "time": 19162, "x": 0, "y": 0}, {"type": "position", "time": 19208, "x": 0, "y": 0}, {"type": "position", "time": 19253, "x": 0, "y": 0}, {"type": "position", "time": 19304, "x": 0, "y": 0}, {"type": "position", "time": 19354, "x": 0, "y": 0}, {"type": "position", "time": 19404, "x": 0, "y": 0}, {"type": "position", "time": 19455, "x": 0, "y": 0}, {"type": "position", "time": 19504, "x": 0, "y": 0}, {"type": "position", "time": 19551, "x": 0, "y": 0}, {"type": "position", "time": 19613, "x": 0, "y": 0}, {"type": "position", "time": 19660, "x": 0, "y": 0}, {"type": "position", "time": 19707, "x": 0, "y": 0}, {"type": "position", "time": 19754, "x": 0, "y": 0}, {"type": "position", "time": 19805, "x": 0, "y": 0}, {"type": "position", "time": 19851, "x": 0, "y": 0}, {"type": "position", "time": 19914, "x": 0, "y": 0}, {"type": "position", "time": 19961, "x": 0, "y": 0}, {"type": "position", "time": 20001, "x": 0, "y": 0}, {"type": "position", "time": 20065, "x": 0, "y": 0}, {"type": "position", "time": 20100, "x": 0, "y": 0}, {"type": "position", "time": 20164, "x": 0, "y": 0}, {"type": "position", "time": 20200, "x": 0, "y": 0}, {"type": "position", "time": 20264, "x": 0, "y": 0}, {"type": "position", "time": 20300, "x": 0, "y": 0}, {"type": "position", "time": 20364, "x": 0, "y": 0}, {"type": "position", "time": 20400, "x": 0, "y": 0}, {"type": "position", "time": 20450, "x": 0, "y": 0}, {"type": "position", "time": 20501, "x": 0, "y": 0}, {"type": "position", "time": 20564, "x": 0, "y": 0}, {"type": "position", "time": 20601, "x": 0, "y": 0}, {"type": "position", "time": 20663, "x": 0, "y": 0}, {"type": "position", "time": 20700, "x": 0, "y": 0}, {"type": "position", "time": 20764, "x": 0, "y": 0}, {"type": "position", "time": 20801, "x": 0, "y": 0}, {"type": "position", "time": 20864, "x": 0, "y": 0}, {"type": "position", "time": 20901, "x": 0, "y": 0}, {"type": "position", "time": 20964, "x": 0, "y": 0}, {"type": "position", "time": 21011, "x": 0, "y": 0}, {"type": "position", "time": 21050, "x": 0, "y": 0}, {"type": "position", "time": 21100, "x": 0, "y": 0}, {"type": "position", "time": 21152, "x": 0, "y": 0}, {"type": "position", "time": 21202, "x": 0, "y": 0}, {"type": "position", "time": 21254, "x": 0, "y": 0}, {"type": "position", "time": 21303, "x": 0, "y": 0}, {"type": "position", "time": 21352, "x": 0, "y": 0}, {"type": "position", "time": 21403, "x": 0, "y": 0}, {"type": "position", "time": 21452, "x": 0, "y": 0}, {"type": "position", "time": 21503, "x": 0, "y": 0}, {"type": "position", "time": 21551, "x": 0, "y": 0}, {"type": "position", "time": 21614, "x": 0, "y": 0}, {"type": "position", "time": 21661, "x": 0, "y": 0}, {"type": "position", "time": 21708, "x": 0, "y": 0}, {"type": "position", "time": 21754, "x": 0, "y": 0}, {"type": "position", "time": 21801, "x": null, "y": 0.44333333333333336}, {"type": "position", "time": 21847, "x": null, "y": 0.06666666666666667}, {"type": "position", "time": 21900, "x": null, "y": 0.06666666666666667}, {"type": "position", "time": 21950, "x": null, "y": 0.06666666666666667}, {"type": "position", "time": 22001, "x": null, "y": 0.06666666666666667}, {"type": "position", "time": 22051, "x": null, "y": 0.06666666666666667}, {"type": "position", "time": 22100, "x": null, "y": 0.06666666666666667}, {"type": "position", "time": 22151, "x": null, "y": 0.06666666666666667}, {"type": "position", "time": 22202, "x": null, "y": 0.06666666666666667}, {"type": "position", "time": 22251, "x": null, "y": 0.06666666666666667}, {"type": "position", "time": 22301, "x": null, "y": 0.06666666666666667}, {"type": "position", "time": 22350, "x": null, "y": 0.06666666666666667}, {"type": "position", "time": 22400, "x": null, "y": 0.06666666666666667}, {"type": "position", "time": 22450, "x": null, "y": 0.06666666666666667}, {"type": "position", "time": 22500, "x": null, "y": 0.06666666666666667}, {"type": "position", "time": 22550, "x": null, "y": 0.06666666666666667}, {"type": "position", "time": 23359, "x": null, "y": 0.06666666666666667}, {"type": "position", "time": 24348, "x": null, "y": 0.06666666666666667}, {"type": "position", "time": 25361, "x": null, "y": 0.06666666666666667}, {"type": "position", "time": 26383, "x": null, "y": 0.06666666666666667}, {"type": "position", "time": 27359, "x": null, "y": 0.06666666666666667}, {"type": "position", "time": 28361, "x": null, "y": 0.06666666666666667}, {"type": "position", "time": 29366, "x": null, "y": 0.06666666666666667}, {"type": "position", "time": 30360, "x": null, "y": 0.06666666666666667}, {"type": "position", "time": 31360, "x": null, "y": 0.06666666666666667}, {"type": "position", "time": 32364, "x": null, "y": 0.06666666666666667}, {"type": "position", "time": 33365, "x": null, "y": 0.06666666666666667}, {"type": "position", "time": 34371, "x": null, "y": 0.06666666666666667}, {"type": "position", "time": 35359, "x": null, "y": 0.06666666666666667}, {"type": "position", "time": 36371, "x": null, "y": 0.06666666666666667}, {"type": "position", "time": 37367, "x": null, "y": 0.06666666666666667}, {"type": "position", "time": 38364, "x": null, "y": 0.06666666666666667}, {"type": "position", "time": 39359, "x": null, "y": 0.06666666666666667}, {"type": "position", "time": 40359, "x": null, "y": 0.06666666666666667}, {"type": "position", "time": 41363, "x": null, "y": 0.06666666666666667}, {"type": "position", "time": 42368, "x": null, "y": 0.06666666666666667}, {"type": "position", "time": 43373, "x": null, "y": 0.06666666666666667}, {"type": "position", "time": 44360, "x": null, "y": 0.06666666666666667}, {"type": "position", "time": 45359, "x": null, "y": 0.06666666666666667}, {"type": "position", "time": 46355, "x": null, "y": 0.06666666666666667}, {"type": "position", "time": 47373, "x": null, "y": 0.06666666666666667}, {"type": "position", "time": 48363, "x": null, "y": 0.06666666666666667}, {"type": "position", "time": 49370, "x": null, "y": 0.06666666666666667}, {"type": "position", "time": 50370, "x": null, "y": 0.06666666666666667}, {"type": "position", "time": 51370, "x": null, "y": 0.06666666666666667}, {"type": "position", "time": 52371, "x": null, "y": 0.06666666666666667}, {"type": "position", "time": 53367, "x": null, "y": 0.06666666666666667}, {"type": "position", "time": 54360, "x": null, "y": 0.06666666666666667}, {"type": "position", "time": 55374, "x": null, "y": 0.06666666666666667}, {"type": "position", "time": 56360, "x": null, "y": 0.06666666666666667}, {"type": "position", "time": 57366, "x": null, "y": 0.06666666666666667}, {"type": "position", "time": 58353, "x": null, "y": 0.06666666666666667}, {"type": "position", "time": 59364, "x": null, "y": 0.06666666666666667}, {"type": "position", "time": 60371, "x": null, "y": 0.06666666666666667}, {"type": "position", "time": 61367, "x": null, "y": 0.06666666666666667}, {"type": "position", "time": 62362, "x": null, "y": 0.06666666666666667}, {"type": "position", "time": 63362, "x": null, "y": 0.06666666666666667}, {"type": "position", "time": 64364, "x": null, "y": 0.06666666666666667}, {"type": "position", "time": 65361, "x": null, "y": 0.06666666666666667}, {"type": "position", "time": 66361, "x": null, "y": 0.06666666666666667}, {"type": "position", "time": 67374, "x": null, "y": 0.06666666666666667}, {"type": "position", "time": 68364, "x": null, "y": 0.06666666666666667}, {"type": "position", "time": 69372, "x": null, "y": 0.06666666666666667}, {"type": "position", "time": 70361, "x": null, "y": 0.06666666666666667}, {"type": "position", "time": 71351, "x": null, "y": 0.06666666666666667}, {"type": "position", "time": 72362, "x": null, "y": 0.06666666666666667}, {"type": "position", "time": 73361, "x": null, "y": 0.06666666666666667}, {"type": "position", "time": 74365, "x": null, "y": 0.06666666666666667}, {"type": "position", "time": 75361, "x": null, "y": 0.06666666666666667}, {"type": "position", "time": 76362, "x": null, "y": 0.06666666666666667}, {"type": "position", "time": 77362, "x": null, "y": 0.06666666666666667}, {"type": "position", "time": 78361, "x": null, "y": 0.06666666666666667}, {"type": "position", "time": 79370, "x": null, "y": 0.06666666666666667}, {"type": "position", "time": 80360, "x": null, "y": 0.06666666666666667}, {"type": "position", "time": 81368, "x": null, "y": 0.06666666666666667}, {"type": "position", "time": 82362, "x": null, "y": 0.06666666666666667}, {"type": "position", "time": 83361, "x": null, "y": 0.06666666666666667}, {"type": "position", "time": 84362, "x": null, "y": 0.06666666666666667}, {"type": "position", "time": 85361, "x": null, "y": 0.06666666666666667}, {"type": "position", "time": 86362, "x": null, "y": 0.06666666666666667}, {"type": "position", "time": 87361, "x": null, "y": 0.06666666666666667}, {"type": "position", "time": 87578, "x": null, "y": 0.06666666666666667}, {"type": "position", "time": 87603, "x": null, "y": 0.06666666666666667}, {"type": "position", "time": 87651, "x": null, "y": 0.06666666666666667}, {"type": "position", "time": 87701, "x": null, "y": 0.06666666666666667}, {"type": "position", "time": 87751, "x": null, "y": 0.06666666666666667}, {"type": "position", "time": 87801, "x": null, "y": 0.06666666666666667}, {"type": "position", "time": 87851, "x": null, "y": 0.06666666666666667}, {"type": "position", "time": 87902, "x": null, "y": 0.06666666666666667}, {"type": "position", "time": 87952, "x": null, "y": 0.06666666666666667}, {"type": "position", "time": 88002, "x": null, "y": 0.06666666666666667}, {"type": "position", "time": 88052, "x": null, "y": 0.06666666666666667}, {"type": "position", "time": 88102, "x": null, "y": 0.06666666666666667}, {"type": "position", "time": 88151, "x": null, "y": 0.06666666666666667}, {"type": "position", "time": 88201, "x": null, "y": 0.06666666666666667}, {"type": "position", "time": 88251, "x": null, "y": 0.06666666666666667}, {"type": "position", "time": 88301, "x": null, "y": 0.06666666666666667}, {"type": "position", "time": 88351, "x": null, "y": 0.06666666666666667}, {"type": "position", "time": 88401, "x": null, "y": 0.18833333333333332}, {"type": "position", "time": 88452, "x": null, "y": 0.29833333333333334}, {"type": "position", "time": 88501, "x": null, "y": 0.37666666666666665}, {"type": "position", "time": 88552, "x": null, "y": 0.4166666666666667}, {"type": "position", "time": 88602, "x": null, "y": 0.43333333333333335}, {"type": "position", "time": 88652, "x": null, "y": 0.48}, {"type": "position", "time": 88702, "x": null, "y": 0.5033333333333333}, {"type": "position", "time": 88752, "x": null, "y": 0.5066666666666667}, {"type": "position", "time": 88802, "x": null, "y": 0.495}, {"type": "position", "time": 88851, "x": null, "y": 0.46}, {"type": "position", "time": 88901, "x": null, "y": 0.45}, {"type": "position", "time": 88951, "x": null, "y": 0.43333333333333335}, {"type": "position", "time": 89002, "x": null, "y": 0.43333333333333335}, {"type": "position", "time": 89052, "x": null, "y": 0.43333333333333335}, {"type": "position", "time": 89102, "x": null, "y": 0.43333333333333335}, {"type": "position", "time": 89151, "x": null, "y": 0.43333333333333335}, {"type": "position", "time": 89201, "x": null, "y": 0.43333333333333335}, {"type": "position", "time": 89251, "x": null, "y": 0.43333333333333335}, {"type": "position", "time": 89301, "x": null, "y": 0.43333333333333335}, {"type": "position", "time": 89351, "x": null, "y": 0.43333333333333335}, {"type": "position", "time": 89402, "x": null, "y": 0.45666666666666667}, {"type": "position", "time": 89451, "x": null, "y": 0.465}, {"type": "position", "time": 89501, "x": null, "y": 0.4683333333333333}, {"type": "position", "time": 89552, "x": null, "y": 0.4683333333333333}, {"type": "position", "time": 89602, "x": null, "y": 0.4683333333333333}, {"type": "position", "time": 89653, "x": null, "y": 0.47}, {"type": "position", "time": 89702, "x": null, "y": 0.4716666666666667}, {"type": "position", "time": 89752, "x": null, "y": 0.475}, {"type": "position", "time": 89802, "x": null, "y": 0.4816666666666667}, {"type": "position", "time": 89851, "x": null, "y": 0.48333333333333334}, {"type": "position", "time": 89901, "x": null, "y": 0.48333333333333334}, {"type": "position", "time": 89951, "x": null, "y": 0.48333333333333334}, {"type": "position", "time": 90001, "x": null, "y": 0.48333333333333334}, {"type": "position", "time": 90051, "x": null, "y": 0.48333333333333334}, {"type": "position", "time": 90101, "x": null, "y": 0.48333333333333334}, {"type": "position", "time": 90151, "x": null, "y": 0.48333333333333334}, {"type": "position", "time": 90202, "x": null, "y": 0.48333333333333334}, {"type": "position", "time": 90252, "x": null, "y": 0.48333333333333334}, {"type": "position", "time": 90302, "x": null, "y": 0.48333333333333334}, {"type": "position", "time": 90352, "x": null, "y": 0.48333333333333334}, {"type": "position", "time": 90402, "x": null, "y": 0.48333333333333334}, {"type": "click", "time": 90474, "x": null, "y": 0.48333333333333334}, {"type": "position", "time": 90501, "x": null, "y": 0.48333333333333334}, {"type": "position", "time": 90501, "x": null, "y": 0.48333333333333334}, {"type": "position", "time": 90551, "x": null, "y": 0.48333333333333334}, {"type": "position", "time": 90601, "x": null, "y": 0.48333333333333334}, {"type": "position", "time": 90651, "x": null, "y": 0.48333333333333334}, {"type": "position", "time": 90702, "x": null, "y": 0.48333333333333334}, {"type": "position", "time": 90752, "x": null, "y": 0.48333333333333334}, {"type": "position", "time": 90802, "x": null, "y": 0.48333333333333334}, {"type": "position", "time": 90860, "x": null, "y": 0.48333333333333334}, {"type": "position", "time": 90901, "x": null, "y": 0.48333333333333334}, {"type": "position", "time": 90951, "x": null, "y": 0.48333333333333334}, {"type": "position", "time": 91001, "x": null, "y": 0.48333333333333334}, {"type": "position", "time": 91051, "x": null, "y": 0.48333333333333334}, {"type": "position", "time": 91101, "x": null, "y": 0.48333333333333334}, {"type": "position", "time": 91151, "x": null, "y": 0.48333333333333334}, {"type": "position", "time": 91201, "x": null, "y": 0.48333333333333334}, {"type": "position", "time": 91252, "x": null, "y": 0.48333333333333334}, {"type": "position", "time": 91302, "x": null, "y": 0.48333333333333334}, {"type": "position", "time": 91352, "x": null, "y": 0.48333333333333334}, {"type": "position", "time": 91402, "x": null, "y": 0.48333333333333334}, {"type": "position", "time": 91457, "x": null, "y": 0.4}, {"type": "position", "time": 91507, "x": null, "y": 0.265}, {"type": "position", "time": 91557, "x": null, "y": 0.20166666666666666}, {"type": "position", "time": 91601, "x": null, "y": 0.185}, {"type": "position", "time": 91651, "x": null, "y": 0.18333333333333332}, {"type": "position", "time": 91701, "x": null, "y": 0.18}, {"type": "position", "time": 91756, "x": null, "y": 0.17666666666666667}, {"type": "position", "time": 91803, "x": null, "y": 0.17666666666666667}, {"type": "position", "time": 91857, "x": null, "y": 0.17833333333333334}, {"type": "position", "time": 91907, "x": null, "y": 0.18333333333333332}, {"type": "position", "time": 91957, "x": null, "y": 0.19}, {"type": "position", "time": 92007, "x": null, "y": 0.19833333333333333}, {"type": "position", "time": 92056, "x": null, "y": 0.20666666666666667}, {"type": "position", "time": 92107, "x": null, "y": 0.21333333333333335}, {"type": "position", "time": 92157, "x": null, "y": 0.21833333333333332}, {"type": "position", "time": 92206, "x": null, "y": 0.22333333333333333}, {"type": "position", "time": 92256, "x": null, "y": 0.22666666666666666}, {"type": "position", "time": 92303, "x": null, "y": 0.23166666666666666}, {"type": "position", "time": 92352, "x": null, "y": 0.23666666666666666}, {"type": "position", "time": 92402, "x": null, "y": 0.24166666666666667}, {"type": "position", "time": 92456, "x": null, "y": 0.24333333333333335}, {"type": "position", "time": 92505, "x": null, "y": 0.25}, {"type": "position", "time": 92556, "x": null, "y": 0.26}, {"type": "position", "time": 92605, "x": null, "y": 0.27666666666666667}, {"type": "position", "time": 92655, "x": null, "y": 0.31166666666666665}, {"type": "position", "time": 92705, "x": null, "y": 0.3566666666666667}, {"type": "position", "time": 92756, "x": null, "y": 0.3983333333333333}, {"type": "position", "time": 92812, "x": null, "y": 0.4266666666666667}, {"type": "position", "time": 92856, "x": null, "y": 0.4483333333333333}, {"type": "position", "time": 92902, "x": null, "y": 0.4533333333333333}, {"type": "position", "time": 92952, "x": null, "y": 0.4533333333333333}, {"type": "position", "time": 93002, "x": null, "y": 0.4533333333333333}, {"type": "position", "time": 93052, "x": null, "y": 0.4533333333333333}, {"type": "position", "time": 93102, "x": null, "y": 0.4533333333333333}, {"type": "position", "time": 93151, "x": null, "y": 0.4533333333333333}, {"type": "position", "time": 93201, "x": null, "y": 0.4533333333333333}, {"type": "position", "time": 93251, "x": null, "y": 0.4533333333333333}, {"type": "position", "time": 93301, "x": null, "y": 0.4533333333333333}, {"type": "position", "time": 93351, "x": null, "y": 0.4533333333333333}, {"type": "position", "time": 93401, "x": null, "y": 0.4533333333333333}, {"type": "position", "time": 93456, "x": null, "y": 0.34}, {"type": "position", "time": 93507, "x": null, "y": 0.265}, {"type": "position", "time": 93553, "x": null, "y": 0.3233333333333333}, {"type": "position", "time": 93602, "x": null, "y": 0.3233333333333333}, {"type": "position", "time": 93651, "x": null, "y": 0.3233333333333333}, {"type": "position", "time": 93701, "x": null, "y": 0.3233333333333333}, {"type": "position", "time": 93751, "x": null, "y": 0.3233333333333333}, {"type": "position", "time": 93802, "x": null, "y": 0.3233333333333333}, {"type": "position", "time": 93852, "x": null, "y": 0.3233333333333333}, {"type": "position", "time": 93902, "x": null, "y": 0.3233333333333333}, {"type": "position", "time": 93952, "x": null, "y": 0.32}, {"type": "position", "time": 94002, "x": null, "y": 0.32}, {"type": "position", "time": 94052, "x": null, "y": 0.32}, {"type": "position", "time": 94102, "x": null, "y": 0.32}, {"type": "position", "time": 94152, "x": null, "y": 0.32}, {"type": "position", "time": 94201, "x": null, "y": 0.32}, {"type": "position", "time": 94251, "x": null, "y": 0.32}, {"type": "position", "time": 94301, "x": null, "y": 0.32}, {"type": "position", "time": 94351, "x": null, "y": 0.32}, {"type": "position", "time": 94401, "x": null, "y": 0.32}, {"type": "position", "time": 94451, "x": null, "y": 0.32}, {"type": "position", "time": 94502, "x": null, "y": 0.32}, {"type": "position", "time": 94552, "x": null, "y": 0.32}, {"type": "position", "time": 94602, "x": null, "y": 0.32}, {"type": "position", "time": 94653, "x": null, "y": 0.32}, {"type": "position", "time": 94703, "x": null, "y": 0.32}, {"type": "position", "time": 94752, "x": null, "y": 0.32}, {"type": "position", "time": 94802, "x": null, "y": 0.32}, {"type": "position", "time": 94851, "x": null, "y": 0.32}, {"type": "position", "time": 94904, "x": null, "y": 0.32}, {"type": "position", "time": 94951, "x": null, "y": 0.32}, {"type": "position", "time": 95001, "x": null, "y": 0.32}, {"type": "position", "time": 95051, "x": null, "y": 0.32}, {"type": "position", "time": 95101, "x": null, "y": 0.32}, {"type": "position", "time": 95152, "x": null, "y": 0.32}, {"type": "position", "time": 95202, "x": null, "y": 0.32}, {"type": "position", "time": 95252, "x": null, "y": 0.32}, {"type": "position", "time": 95302, "x": null, "y": 0.32}, {"type": "position", "time": 95352, "x": null, "y": 0.32}, {"type": "position", "time": 95402, "x": null, "y": 0.32}, {"type": "position", "time": 95455, "x": null, "y": 0.32}, {"type": "position", "time": 95502, "x": null, "y": 0.32}, {"type": "position", "time": 95551, "x": null, "y": 0.32}, {"type": "position", "time": 95602, "x": null, "y": 0.32}, {"type": "position", "time": 95651, "x": null, "y": 0.32}, {"type": "position", "time": 95701, "x": null, "y": 0.32}, {"type": "position", "time": 95751, "x": null, "y": 0.32}, {"type": "position", "time": 95801, "x": null, "y": 0.32}, {"type": "position", "time": 95852, "x": null, "y": 0.32}, {"type": "position", "time": 95902, "x": null, "y": 0.32}, {"type": "position", "time": 95952, "x": null, "y": 0.32}, {"type": "position", "time": 96002, "x": null, "y": 0.32}, {"type": "position", "time": 96052, "x": null, "y": 0.32}, {"type": "position", "time": 96102, "x": null, "y": 0.32}, {"type": "position", "time": 96152, "x": null, "y": 0.32}, {"type": "position", "time": 96202, "x": null, "y": 0.32}, {"type": "position", "time": 96251, "x": null, "y": 0.32}, {"type": "position", "time": 96301, "x": null, "y": 0.32}, {"type": "position", "time": 96351, "x": null, "y": 0.32}, {"type": "position", "time": 96401, "x": null, "y": 0.32}, {"type": "position", "time": 96451, "x": null, "y": 0.32}, {"type": "position", "time": 96501, "x": null, "y": 0.32}, {"type": "position", "time": 96552, "x": null, "y": 0.32}, {"type": "position", "time": 96602, "x": null, "y": 0.32}, {"type": "position", "time": 96652, "x": null, "y": 0.32}, {"type": "position", "time": 96702, "x": null, "y": 0.32}, {"type": "position", "time": 96752, "x": null, "y": 0.32}, {"type": "position", "time": 96802, "x": null, "y": 0.32}, {"type": "position", "time": 96852, "x": null, "y": 0.32}, {"type": "position", "time": 96903, "x": null, "y": 0.3433333333333333}, {"type": "position", "time": 96953, "x": null, "y": 0.3233333333333333}, {"type": "position", "time": 97004, "x": null, "y": 0.30833333333333335}, {"type": "position", "time": 97054, "x": null, "y": 0.2833333333333333}, {"type": "position", "time": 97103, "x": null, "y": 0.27}, {"type": "position", "time": 97151, "x": null, "y": 0.265}, {"type": "position", "time": 97202, "x": null, "y": 0.265}, {"type": "position", "time": 97252, "x": null, "y": 0.265}, {"type": "position", "time": 97302, "x": null, "y": 0.265}, {"type": "position", "time": 97352, "x": null, "y": 0.265}, {"type": "position", "time": 97402, "x": null, "y": 0.265}, {"type": "position", "time": 97452, "x": null, "y": 0.265}, {"type": "position", "time": 97502, "x": null, "y": 0.265}, {"type": "position", "time": 97552, "x": null, "y": 0.265}, {"type": "position", "time": 97601, "x": null, "y": 0.265}, {"type": "position", "time": 97651, "x": null, "y": 0.265}, {"type": "position", "time": 97701, "x": null, "y": 0.265}, {"type": "position", "time": 97751, "x": null, "y": 0.265}, {"type": "position", "time": 97801, "x": null, "y": 0.265}, {"type": "position", "time": 97851, "x": null, "y": 0.265}, {"type": "position", "time": 97902, "x": null, "y": 0.265}, {"type": "position", "time": 97952, "x": null, "y": 0.265}, {"type": "position", "time": 98002, "x": null, "y": 0.265}, {"type": "position", "time": 98052, "x": null, "y": 0.265}, {"type": "position", "time": 98102, "x": null, "y": 0.265}, {"type": "position", "time": 98151, "x": null, "y": 0.265}, {"type": "position", "time": 98201, "x": null, "y": 0.265}, {"type": "position", "time": 98251, "x": null, "y": 0.265}, {"type": "position", "time": 98302, "x": null, "y": 0.265}, {"type": "position", "time": 98352, "x": null, "y": 0.265}, {"type": "position", "time": 98402, "x": null, "y": 0.265}, {"type": "position", "time": 98452, "x": null, "y": 0.265}, {"type": "position", "time": 98502, "x": null, "y": 0.265}, {"type": "position", "time": 98552, "x": null, "y": 0.265}, {"type": "position", "time": 98602, "x": null, "y": 0.265}, {"type": "position", "time": 98651, "x": null, "y": 0.265}, {"type": "position", "time": 98701, "x": null, "y": 0.265}, {"type": "position", "time": 98751, "x": null, "y": 0.265}, {"type": "position", "time": 98801, "x": null, "y": 0.265}, {"type": "position", "time": 98852, "x": null, "y": 0.265}, {"type": "position", "time": 98903, "x": null, "y": 0.265}, {"type": "position", "time": 98952, "x": null, "y": 0.265}, {"type": "position", "time": 99002, "x": null, "y": 0.265}, {"type": "position", "time": 99052, "x": null, "y": 0.265}, {"type": "position", "time": 99102, "x": null, "y": 0.265}, {"type": "position", "time": 99152, "x": null, "y": 0.265}, {"type": "position", "time": 99202, "x": null, "y": 0.265}, {"type": "position", "time": 99252, "x": null, "y": 0.265}, {"type": "position", "time": 99301, "x": null, "y": 0.265}, {"type": "position", "time": 99351, "x": null, "y": 0.265}, {"type": "position", "time": 99401, "x": null, "y": 0.265}, {"type": "position", "time": 99451, "x": null, "y": 0.265}, {"type": "position", "time": 99501, "x": null, "y": 0.265}, {"type": "position", "time": 99552, "x": null, "y": 0.265}, {"type": "position", "time": 99602, "x": null, "y": 0.265}, {"type": "position", "time": 99652, "x": null, "y": 0.265}, {"type": "position", "time": 99703, "x": null, "y": 0.265}, {"type": "position", "time": 99752, "x": null, "y": 0.265}, {"type": "position", "time": 99801, "x": null, "y": 0.265}, {"type": "position", "time": 99852, "x": null, "y": 0.265}, {"type": "position", "time": 99902, "x": null, "y": 0.265}, {"type": "position", "time": 99952, "x": null, "y": 0.265}, {"type": "position", "time": 100002, "x": null, "y": 0.265}, {"type": "position", "time": 100052, "x": null, "y": 0.265}, {"type": "position", "time": 100102, "x": null, "y": 0.265}, {"type": "position", "time": 100152, "x": null, "y": 0.265}, {"type": "position", "time": 100201, "x": null, "y": 0.265}, {"type": "position", "time": 100251, "x": null, "y": 0.265}, {"type": "position", "time": 100301, "x": null, "y": 0.265}, {"type": "position", "time": 100352, "x": null, "y": 0.265}, {"type": "position", "time": 100402, "x": null, "y": 0.265}, {"type": "position", "time": 100452, "x": null, "y": 0.265}, {"type": "position", "time": 100502, "x": null, "y": 0.265}, {"type": "position", "time": 100552, "x": null, "y": 0.265}, {"type": "position", "time": 100602, "x": null, "y": 0.265}, {"type": "position", "time": 100652, "x": null, "y": 0.265}, {"type": "position", "time": 100702, "x": null, "y": 0.265}, {"type": "position", "time": 100752, "x": null, "y": 0.265}, {"type": "position", "time": 100801, "x": null, "y": 0.265}, {"type": "position", "time": 100851, "x": null, "y": 0.265}, {"type": "position", "time": 100901, "x": null, "y": 0.265}, {"type": "position", "time": 100951, "x": null, "y": 0.265}, {"type": "position", "time": 101002, "x": null, "y": 0.265}, {"type": "position", "time": 101052, "x": null, "y": 0.265}, {"type": "position", "time": 101102, "x": null, "y": 0.265}, {"type": "position", "time": 101152, "x": null, "y": 0.265}, {"type": "position", "time": 101202, "x": null, "y": 0.265}, {"type": "position", "time": 101252, "x": null, "y": 0.265}, {"type": "position", "time": 101302, "x": null, "y": 0.265}, {"type": "position", "time": 101352, "x": null, "y": 0.265}, {"type": "position", "time": 101401, "x": null, "y": 0.265}, {"type": "position", "time": 101451, "x": null, "y": 0.265}, {"type": "position", "time": 101501, "x": null, "y": 0.265}, {"type": "position", "time": 101551, "x": null, "y": 0.265}, {"type": "position", "time": 101602, "x": null, "y": 0.265}, {"type": "position", "time": 101652, "x": null, "y": 0.265}, {"type": "position", "time": 101702, "x": null, "y": 0.265}, {"type": "position", "time": 101752, "x": null, "y": 0.265}, {"type": "position", "time": 101802, "x": null, "y": 0.265}, {"type": "position", "time": 101852, "x": null, "y": 0.265}, {"type": "position", "time": 101901, "x": null, "y": 0.265}, {"type": "position", "time": 101951, "x": null, "y": 0.265}, {"type": "position", "time": 102002, "x": null, "y": 0.265}, {"type": "position", "time": 102052, "x": null, "y": 0.265}, {"type": "position", "time": 102102, "x": null, "y": 0.265}, {"type": "position", "time": 102152, "x": null, "y": 0.265}, {"type": "position", "time": 102202, "x": null, "y": 0.265}, {"type": "position", "time": 102252, "x": null, "y": 0.265}, {"type": "position", "time": 102302, "x": null, "y": 0.265}, {"type": "position", "time": 102352, "x": null, "y": 0.265}, {"type": "position", "time": 102402, "x": null, "y": 0.265}, {"type": "position", "time": 102452, "x": null, "y": 0.265}, {"type": "position", "time": 102501, "x": null, "y": 0.265}, {"type": "position", "time": 102551, "x": null, "y": 0.265}, {"type": "position", "time": 102601, "x": null, "y": 0.265}, {"type": "position", "time": 102651, "x": null, "y": 0.265}, {"type": "position", "time": 102702, "x": null, "y": 0.265}, {"type": "position", "time": 102752, "x": null, "y": 0.265}, {"type": "position", "time": 102802, "x": null, "y": 0.265}, {"type": "position", "time": 102852, "x": null, "y": 0.265}, {"type": "position", "time": 102901, "x": null, "y": 0.265}, {"type": "position", "time": 102951, "x": null, "y": 0.265}, {"type": "position", "time": 103002, "x": null, "y": 0.265}, {"type": "position", "time": 103052, "x": null, "y": 0.265}, {"type": "position", "time": 103103, "x": null, "y": 0.265}, {"type": "position", "time": 103152, "x": null, "y": 0.265}, {"type": "position", "time": 103202, "x": null, "y": 0.265}, {"type": "position", "time": 103252, "x": null, "y": 0.265}, {"type": "position", "time": 103301, "x": null, "y": 0.265}, {"type": "position", "time": 103351, "x": null, "y": 0.265}, {"type": "position", "time": 103401, "x": null, "y": 0.265}, {"type": "position", "time": 103453, "x": null, "y": 0.265}, {"type": "position", "time": 103502, "x": null, "y": 0.265}, {"type": "position", "time": 103552, "x": null, "y": 0.265}, {"type": "position", "time": 103602, "x": null, "y": 0.265}, {"type": "position", "time": 103652, "x": null, "y": 0.265}, {"type": "position", "time": 103702, "x": null, "y": 0.265}, {"type": "position", "time": 103752, "x": null, "y": 0.265}, {"type": "position", "time": 103802, "x": null, "y": 0.265}, {"type": "position", "time": 103852, "x": null, "y": 0.265}, {"type": "position", "time": 103901, "x": null, "y": 0.265}, {"type": "position", "time": 103951, "x": null, "y": 0.265}, {"type": "position", "time": 104001, "x": null, "y": 0.265}, {"type": "position", "time": 104052, "x": null, "y": 0.265}, {"type": "position", "time": 104102, "x": null, "y": 0.265}, {"type": "position", "time": 104152, "x": null, "y": 0.265}, {"type": "position", "time": 104202, "x": null, "y": 0.265}, {"type": "position", "time": 104252, "x": null, "y": 0.265}, {"type": "position", "time": 104302, "x": null, "y": 0.265}, {"type": "position", "time": 104352, "x": null, "y": 0.265}, {"type": "position", "time": 104402, "x": null, "y": 0.265}, {"type": "position", "time": 104452, "x": null, "y": 0.265}, {"type": "position", "time": 104502, "x": null, "y": 0.265}, {"type": "position", "time": 104552, "x": null, "y": 0.265}, {"type": "position", "time": 104602, "x": null, "y": 0.265}, {"type": "position", "time": 104652, "x": null, "y": 0.265}, {"type": "position", "time": 104702, "x": null, "y": 0.265}, {"type": "position", "time": 104752, "x": null, "y": 0.265}, {"type": "position", "time": 104802, "x": null, "y": 0.265}, {"type": "position", "time": 104852, "x": null, "y": 0.265}, {"type": "position", "time": 104901, "x": null, "y": 0.265}, {"type": "position", "time": 104951, "x": null, "y": 0.265}, {"type": "position", "time": 105001, "x": null, "y": 0.265}, {"type": "position", "time": 105051, "x": null, "y": 0.265}, {"type": "position", "time": 105102, "x": null, "y": 0.265}, {"type": "position", "time": 105152, "x": null, "y": 0.265}, {"type": "position", "time": 105202, "x": null, "y": 0.265}, {"type": "position", "time": 105252, "x": null, "y": 0.265}, {"type": "position", "time": 105302, "x": null, "y": 0.265}, {"type": "position", "time": 105352, "x": null, "y": 0.265}, {"type": "position", "time": 105402, "x": null, "y": 0.265}, {"type": "position", "time": 105452, "x": null, "y": 0.27}, {"type": "position", "time": 105502, "x": null, "y": 0.28833333333333333}, {"type": "position", "time": 105552, "x": null, "y": 0.3016666666666667}, {"type": "position", "time": 105601, "x": null, "y": 0.315}, {"type": "position", "time": 105651, "x": null, "y": 0.3233333333333333}, {"type": "position", "time": 105701, "x": null, "y": 0.32666666666666666}, {"type": "position", "time": 105752, "x": null, "y": 0.3283333333333333}, {"type": "position", "time": 105802, "x": null, "y": 0.3283333333333333}, {"type": "position", "time": 105852, "x": null, "y": 0.3283333333333333}, {"type": "position", "time": 105902, "x": null, "y": 0.3283333333333333}, {"type": "position", "time": 105952, "x": null, "y": 0.3283333333333333}, {"type": "position", "time": 106002, "x": null, "y": 0.3283333333333333}, {"type": "position", "time": 106052, "x": null, "y": 0.3283333333333333}, {"type": "position", "time": 106102, "x": null, "y": 0.3283333333333333}, {"type": "position", "time": 106152, "x": null, "y": 0.3283333333333333}, {"type": "position", "time": 106202, "x": null, "y": 0.3283333333333333}, {"type": "position", "time": 106252, "x": null, "y": 0.33666666666666667}, {"type": "position", "time": 106301, "x": null, "y": 0.38}, {"type": "position", "time": 106351, "x": null, "y": 0.4116666666666667}, {"type": "position", "time": 106402, "x": null, "y": 0.46}, {"type": "position", "time": 106452, "x": null, "y": 0.49833333333333335}, {"type": "position", "time": 106502, "x": null, "y": 0.51}, {"type": "position", "time": 106552, "x": null, "y": 0.52}, {"type": "position", "time": 106602, "x": null, "y": 0.5266666666666666}, {"type": "position", "time": 106652, "x": null, "y": 0.5383333333333333}, {"type": "position", "time": 106702, "x": null, "y": 0.5466666666666666}, {"type": "position", "time": 106752, "x": null, "y": 0.555}, {"type": "position", "time": 106802, "x": null, "y": 0.5583333333333333}, {"type": "position", "time": 106852, "x": null, "y": 0.555}, {"type": "position", "time": 106902, "x": null, "y": 0.5516666666666666}, {"type": "position", "time": 106951, "x": null, "y": 0.5516666666666666}, {"type": "position", "time": 107001, "x": null, "y": 0.5516666666666666}, {"type": "position", "time": 107051, "x": null, "y": 0.5516666666666666}, {"type": "position", "time": 107102, "x": null, "y": 0.5516666666666666}, {"type": "position", "time": 107153, "x": null, "y": 0.5516666666666666}, {"type": "position", "time": 107202, "x": null, "y": 0.5516666666666666}, {"type": "position", "time": 107252, "x": null, "y": 0.5516666666666666}, {"type": "slider", "time": 107308, "value": 0.64}, {"type": "position", "time": 107313, "x": null, "y": 0.5516666666666666}, {"type": "position", "time": 107352, "x": null, "y": 0.5516666666666666}, {"type": "position", "time": 107402, "x": null, "y": 0.5516666666666666}, {"type": "position", "time": 107452, "x": null, "y": 0.5516666666666666}, {"type": "position", "time": 107502, "x": null, "y": 0.5516666666666666}, {"type": "click", "time": 107546, "x": null, "y": 0.5516666666666666}, {"type": "position", "time": 107562, "x": null, "y": 0.5516666666666666}, {"type": "position", "time": 107602, "x": null, "y": 0.5516666666666666}, {"type": "position", "time": 107652, "x": null, "y": 0.5516666666666666}, {"type": "position", "time": 107702, "x": null, "y": 0.5516666666666666}, {"type": "position", "time": 107752, "x": null, "y": 0.5516666666666666}, {"type": "position", "time": 107801, "x": null, "y": 0.5516666666666666}, {"type": "position", "time": 107851, "x": null, "y": 0.5516666666666666}, {"type": "position", "time": 107902, "x": null, "y": 0.5516666666666666}, {"type": "position", "time": 107952, "x": null, "y": 0.5516666666666666}, {"type": "position", "time": 108002, "x": null, "y": 0.5516666666666666}, {"type": "position", "time": 108052, "x": null, "y": 0.5516666666666666}, {"type": "position", "time": 108102, "x": null, "y": 0.5516666666666666}, {"type": "position", "time": 108152, "x": null, "y": 0.5516666666666666}, {"type": "position", "time": 108202, "x": null, "y": 0.5516666666666666}, {"type": "position", "time": 108252, "x": null, "y": 0.5516666666666666}, {"type": "position", "time": 108302, "x": null, "y": 0.5516666666666666}, {"type": "slider", "time": 108312, "value": 0.65}, {"type": "slider", "time": 108333, "value": 0.67}, {"type": "slider", "time": 108349, "value": 0.69}, {"type": "position", "time": 108352, "x": null, "y": 0.5533333333333333}, {"type": "slider", "time": 108370, "value": 0.7}, {"type": "slider", "time": 108385, "value": 0.71}, {"type": "position", "time": 108402, "x": null, "y": 0.5533333333333333}, {"type": "slider", "time": 108413, "value": 0.72}, {"type": "slider", "time": 108433, "value": 0.73}, {"type": "position", "time": 108451, "x": null, "y": 0.5533333333333333}, {"type": "position", "time": 108501, "x": null, "y": 0.5533333333333333}, {"type": "position", "time": 108551, "x": null, "y": 0.5533333333333333}, {"type": "position", "time": 108602, "x": null, "y": 0.5533333333333333}, {"type": "position", "time": 108652, "x": null, "y": 0.5533333333333333}, {"type": "position", "time": 108702, "x": null, "y": 0.5533333333333333}, {"type": "position", "time": 108752, "x": null, "y": 0.5533333333333333}, {"type": "position", "time": 108802, "x": null, "y": 0.5533333333333333}, {"type": "position", "time": 108852, "x": null, "y": 0.5533333333333333}, {"type": "position", "time": 108902, "x": null, "y": 0.5533333333333333}, {"type": "position", "time": 108952, "x": null, "y": 0.5516666666666666}, {"type": "position", "time": 109002, "x": null, "y": 0.5516666666666666}, {"type": "position", "time": 109052, "x": null, "y": 0.5516666666666666}, {"type": "slider", "time": 109095, "value": 0.72}, {"type": "position", "time": 109102, "x": null, "y": 0.5516666666666666}, {"type": "slider", "time": 109146, "value": 0.71}, {"type": "position", "time": 109151, "x": null, "y": 0.5566666666666666}, {"type": "slider", "time": 109167, "value": 0.7}, {"type": "slider", "time": 109196, "value": 0.69}, {"type": "position", "time": 109201, "x": null, "y": 0.56}, {"type": "slider", "time": 109248, "value": 0.68}, {"type": "position", "time": 109252, "x": null, "y": 0.56}, {"type": "slider", "time": 109296, "value": 0.67}, {"type": "position", "time": 109302, "x": null, "y": 0.56}, {"type": "position", "time": 109352, "x": null, "y": 0.56}, {"type": "position", "time": 109402, "x": null, "y": 0.56}, {"type": "position", "time": 109452, "x": null, "y": 0.5583333333333333}, {"type": "position", "time": 109502, "x": null, "y": 0.5583333333333333}, {"type": "position", "time": 109552, "x": null, "y": 0.5583333333333333}, {"type": "position", "time": 109602, "x": null, "y": 0.5583333333333333}, {"type": "position", "time": 109652, "x": null, "y": 0.5583333333333333}, {"type": "position", "time": 109702, "x": null, "y": 0.5583333333333333}, {"type": "position", "time": 109752, "x": null, "y": 0.5583333333333333}, {"type": "position", "time": 109802, "x": null, "y": 0.5583333333333333}, {"type": "position", "time": 109851, "x": null, "y": 0.5583333333333333}, {"type": "position", "time": 109901, "x": null, "y": 0.5583333333333333}, {"type": "position", "time": 109952, "x": null, "y": 0.5583333333333333}, {"type": "position", "time": 110002, "x": null, "y": 0.5583333333333333}, {"type": "position", "time": 110052, "x": null, "y": 0.5583333333333333}, {"type": "position", "time": 110102, "x": null, "y": 0.5583333333333333}, {"type": "position", "time": 110152, "x": null, "y": 0.5583333333333333}, {"type": "position", "time": 110202, "x": null, "y": 0.5583333333333333}, {"type": "position", "time": 110252, "x": null, "y": 0.5583333333333333}, {"type": "position", "time": 110302, "x": null, "y": 0.5583333333333333}, {"type": "position", "time": 110352, "x": null, "y": 0.5583333333333333}, {"type": "position", "time": 110402, "x": null, "y": 0.5583333333333333}, {"type": "position", "time": 110452, "x": null, "y": 0.5583333333333333}, {"type": "position", "time": 110501, "x": null, "y": 0.5583333333333333}, {"type": "position", "time": 110552, "x": null, "y": 0.5583333333333333}, {"type": "position", "time": 110602, "x": null, "y": 0.5583333333333333}, {"type": "position", "time": 110652, "x": null, "y": 0.5583333333333333}, {"type": "position", "time": 110702, "x": null, "y": 0.5583333333333333}, {"type": "position", "time": 110752, "x": null, "y": 0.5583333333333333}, {"type": "position", "time": 110802, "x": null, "y": 0.5583333333333333}, {"type": "position", "time": 110852, "x": null, "y": 0.5583333333333333}, {"type": "slider", "time": 110878, "value": 0.68}, {"type": "slider", "time": 110898, "value": 0.69}, {"type": "position", "time": 110902, "x": null, "y": 0.5583333333333333}, {"type": "slider", "time": 110915, "value": 0.7}, {"type": "slider", "time": 110931, "value": 0.71}, {"type": "slider", "time": 110948, "value": 0.72}, {"type": "position", "time": 110952, "x": null, "y": 0.5633333333333334}, {"type": "position", "time": 111002, "x": null, "y": 0.5666666666666667}, {"type": "position", "time": 111052, "x": null, "y": 0.5666666666666667}, {"type": "position", "time": 111102, "x": null, "y": 0.5666666666666667}, {"type": "position", "time": 111151, "x": null, "y": 0.5666666666666667}, {"type": "position", "time": 111201, "x": null, "y": 0.5666666666666667}, {"type": "position", "time": 111252, "x": null, "y": 0.5666666666666667}, {"type": "position", "time": 111302, "x": null, "y": 0.5666666666666667}, {"type": "slider", "time": 111319, "value": 0.71}, {"type": "position", "time": 111356, "x": null, "y": 0.5666666666666667}, {"type": "slider", "time": 111401, "value": 0.7}, {"type": "position", "time": 111402, "x": null, "y": 0.5666666666666667}, {"type": "slider", "time": 111444, "value": 0.69}, {"type": "position", "time": 111452, "x": null, "y": 0.5666666666666667}, {"type": "position", "time": 111502, "x": null, "y": 0.5666666666666667}, {"type": "slider", "time": 111510, "value": 0.68}, {"type": "position", "time": 111552, "x": null, "y": 0.5666666666666667}, {"type": "position", "time": 111602, "x": null, "y": 0.5666666666666667}, {"type": "position", "time": 111652, "x": null, "y": 0.5666666666666667}, {"type": "position", "time": 111710, "x": null, "y": 0.5666666666666667}, {"type": "position", "time": 111752, "x": null, "y": 0.5666666666666667}, {"type": "position", "time": 111801, "x": null, "y": 0.5666666666666667}, {"type": "position", "time": 111851, "x": null, "y": 0.5666666666666667}, {"type": "position", "time": 111902, "x": null, "y": 0.5666666666666667}, {"type": "position", "time": 111952, "x": null, "y": 0.5666666666666667}, {"type": "position", "time": 112002, "x": null, "y": 0.6133333333333333}, {"type": "position", "time": 112052, "x": null, "y": 0.725}, {"type": "position", "time": 112102, "x": null, "y": 0.735}, {"type": "position", "time": 112152, "x": null, "y": 0.735}, {"type": "position", "time": 112202, "x": null, "y": 0.7316666666666667}, {"type": "position", "time": 112252, "x": null, "y": 0.7316666666666667}, {"type": "position", "time": 112302, "x": null, "y": 0.72}, {"type": "position", "time": 112352, "x": null, "y": 0.7033333333333334}, {"type": "position", "time": 112403, "x": null, "y": 0.6833333333333333}, {"type": "position", "time": 112452, "x": null, "y": 0.6716666666666666}, {"type": "position", "time": 112502, "x": null, "y": 0.665}, {"type": "position", "time": 112553, "x": null, "y": 0.6583333333333333}, {"type": "position", "time": 112602, "x": null, "y": 0.6583333333333333}, {"type": "position", "time": 112652, "x": null, "y": 0.6583333333333333}, {"type": "position", "time": 112702, "x": null, "y": 0.6583333333333333}, {"type": "position", "time": 112752, "x": null, "y": 0.6583333333333333}, {"type": "position", "time": 112802, "x": null, "y": 0.6583333333333333}, {"type": "position", "time": 112852, "x": null, "y": 0.6583333333333333}, {"type": "position", "time": 112902, "x": null, "y": 0.6583333333333333}, {"type": "position", "time": 112952, "x": null, "y": 0.6583333333333333}, {"type": "position", "time": 113002, "x": null, "y": 0.6583333333333333}, {"type": "position", "time": 113052, "x": null, "y": 0.6583333333333333}, {"type": "position", "time": 113102, "x": null, "y": 0.6583333333333333}, {"type": "position", "time": 113152, "x": null, "y": 0.6583333333333333}, {"type": "position", "time": 113202, "x": null, "y": 0.6583333333333333}, {"type": "position", "time": 113252, "x": null, "y": 0.6583333333333333}, {"type": "position", "time": 113302, "x": null, "y": 0.6583333333333333}, {"type": "position", "time": 113352, "x": null, "y": 0.6583333333333333}, {"type": "position", "time": 113402, "x": null, "y": 0.6583333333333333}, {"type": "position", "time": 113452, "x": null, "y": 0.6583333333333333}, {"type": "position", "time": 113501, "x": null, "y": 0.6583333333333333}, {"type": "position", "time": 113552, "x": null, "y": 0.6583333333333333}, {"type": "position", "time": 113602, "x": null, "y": 0.6583333333333333}, {"type": "position", "time": 113652, "x": null, "y": 0.6583333333333333}, {"type": "position", "time": 113702, "x": null, "y": 0.6583333333333333}, {"type": "position", "time": 113752, "x": null, "y": 0.6583333333333333}, {"type": "position", "time": 113802, "x": null, "y": 0.6583333333333333}, {"type": "position", "time": 113852, "x": null, "y": 0.6583333333333333}, {"type": "position", "time": 113902, "x": null, "y": 0.6583333333333333}, {"type": "position", "time": 113952, "x": null, "y": 0.6583333333333333}, {"type": "position", "time": 114002, "x": null, "y": 0.6583333333333333}, {"type": "position", "time": 114052, "x": null, "y": 0.6583333333333333}, {"type": "click", "time": 114067, "x": null, "y": 0.6583333333333333}, {"type": "position", "time": 114102, "x": null, "y": 0.6583333333333333}, {"type": "position", "time": 114152, "x": null, "y": 0.6583333333333333}, {"type": "position", "time": 114202, "x": null, "y": 0.6583333333333333}, {"type": "position", "time": 114252, "x": null, "y": 0.6583333333333333}, {"type": "position", "time": 114301, "x": null, "y": 0.6583333333333333}, {"type": "position", "time": 114352, "x": null, "y": 0.6583333333333333}, {"type": "position", "time": 114402, "x": null, "y": 0.6583333333333333}, {"type": "position", "time": 114452, "x": null, "y": 0.6583333333333333}, {"type": "position", "time": 114502, "x": null, "y": 0.6583333333333333}, {"type": "position", "time": 114552, "x": null, "y": 0.6583333333333333}, {"type": "position", "time": 114602, "x": null, "y": 0.6583333333333333}, {"type": "position", "time": 114652, "x": null, "y": 0.6583333333333333}, {"type": "position", "time": 114702, "x": null, "y": 0.6583333333333333}, {"type": "position", "time": 114752, "x": null, "y": 0.6583333333333333}, {"type": "position", "time": 114802, "x": null, "y": 0.6583333333333333}, {"type": "position", "time": 114852, "x": null, "y": 0.6583333333333333}, {"type": "position", "time": 114902, "x": null, "y": 0.6583333333333333}, {"type": "position", "time": 114952, "x": null, "y": 0.6583333333333333}, {"type": "position", "time": 115001, "x": null, "y": 0.6583333333333333}, {"type": "position", "time": 115052, "x": null, "y": 0.6583333333333333}, {"type": "position", "time": 115102, "x": null, "y": 0.6583333333333333}, {"type": "position", "time": 115152, "x": null, "y": 0.6583333333333333}, {"type": "position", "time": 115202, "x": null, "y": 0.6583333333333333}, {"type": "position", "time": 115252, "x": null, "y": 0.6583333333333333}, {"type": "position", "time": 115302, "x": null, "y": 0.6583333333333333}, {"type": "position", "time": 115357, "x": null, "y": 0.6716666666666666}, {"type": "position", "time": 115407, "x": null, "y": 0.705}, {"type": "position", "time": 115457, "x": null, "y": 0.7216666666666667}, {"type": "position", "time": 115507, "x": null, "y": 0.7283333333333334}, {"type": "position", "time": 115552, "x": null, "y": 0.7283333333333334}, {"type": "position", "time": 115602, "x": null, "y": 0.7183333333333334}, {"type": "position", "time": 115652, "x": null, "y": 0.7183333333333334}, {"type": "position", "time": 115702, "x": null, "y": 0.7183333333333334}, {"type": "position", "time": 115752, "x": null, "y": 0.7183333333333334}, {"type": "position", "time": 115802, "x": null, "y": 0.7183333333333334}, {"type": "position", "time": 115852, "x": null, "y": 0.7183333333333334}, {"type": "position", "time": 115902, "x": null, "y": 0.7183333333333334}, {"type": "position", "time": 115952, "x": null, "y": 0.7183333333333334}, {"type": "position", "time": 116002, "x": null, "y": 0.7183333333333334}, {"type": "position", "time": 116052, "x": null, "y": 0.7183333333333334}, {"type": "position", "time": 116102, "x": null, "y": 0.7183333333333334}, {"type": "position", "time": 116152, "x": null, "y": 0.7183333333333334}, {"type": "position", "time": 116202, "x": null, "y": 0.7183333333333334}, {"type": "position", "time": 116251, "x": null, "y": 0.7183333333333334}, {"type": "position", "time": 116302, "x": null, "y": 0.7183333333333334}, {"type": "position", "time": 116352, "x": null, "y": 0.7183333333333334}, {"type": "position", "time": 116407, "x": null, "y": 0.69}, {"type": "position", "time": 116457, "x": null, "y": 0.645}, {"type": "position", "time": 116506, "x": null, "y": 0.62}, {"type": "position", "time": 116558, "x": null, "y": 0.6066666666666667}, {"type": "position", "time": 116607, "x": null, "y": 0.5966666666666667}, {"type": "position", "time": 116659, "x": null, "y": 0.59}, {"type": "position", "time": 116706, "x": null, "y": 0.575}, {"type": "position", "time": 116757, "x": null, "y": 0.5566666666666666}, {"type": "position", "time": 116809, "x": null, "y": 0.545}, {"type": "position", "time": 116856, "x": null, "y": 0.54}, {"type": "position", "time": 116906, "x": null, "y": 0.5316666666666666}, {"type": "position", "time": 116956, "x": null, "y": 0.53}, {"type": "position", "time": 117006, "x": null, "y": 0.525}, {"type": "position", "time": 117059, "x": null, "y": 0.525}, {"type": "position", "time": 117106, "x": null, "y": 0.525}, {"type": "position", "time": 117156, "x": null, "y": 0.525}, {"type": "position", "time": 117205, "x": null, "y": 0.525}, {"type": "position", "time": 117252, "x": null, "y": 0.525}, {"type": "position", "time": 117302, "x": null, "y": 0.525}, {"type": "position", "time": 117352, "x": null, "y": 0.525}, {"type": "position", "time": 117402, "x": null, "y": 0.525}, {"type": "position", "time": 117452, "x": null, "y": 0.525}, {"type": "position", "time": 117502, "x": null, "y": 0.525}, {"type": "position", "time": 117554, "x": null, "y": 0.5283333333333333}, {"type": "position", "time": 117606, "x": null, "y": 0.53}, {"type": "position", "time": 117656, "x": null, "y": 0.53}, {"type": "position", "time": 117702, "x": null, "y": 0.53}, {"type": "position", "time": 117753, "x": null, "y": 0.53}, {"type": "position", "time": 117802, "x": null, "y": 0.5316666666666666}, {"type": "position", "time": 117852, "x": null, "y": 0.5316666666666666}, {"type": "position", "time": 117902, "x": null, "y": 0.5316666666666666}, {"type": "position", "time": 117952, "x": null, "y": 0.5316666666666666}, {"type": "position", "time": 118002, "x": null, "y": 0.5316666666666666}, {"type": "position", "time": 118052, "x": null, "y": 0.5316666666666666}, {"type": "position", "time": 118102, "x": null, "y": 0.5316666666666666}, {"type": "position", "time": 118152, "x": null, "y": 0.5316666666666666}, {"type": "position", "time": 118202, "x": null, "y": 0.5316666666666666}, {"type": "position", "time": 118252, "x": null, "y": 0.5316666666666666}, {"type": "position", "time": 118302, "x": null, "y": 0.5316666666666666}, {"type": "click", "time": 118309, "x": null, "y": 0.5316666666666666}, {"type": "position", "time": 118352, "x": null, "y": 0.5316666666666666}, {"type": "position", "time": 118402, "x": null, "y": 0.5316666666666666}, {"type": "position", "time": 118452, "x": null, "y": 0.5316666666666666}, {"type": "position", "time": 118502, "x": null, "y": 0.5316666666666666}, {"type": "position", "time": 118552, "x": null, "y": 0.5316666666666666}, {"type": "position", "time": 118602, "x": null, "y": 0.5316666666666666}, {"type": "position", "time": 118652, "x": null, "y": 0.5316666666666666}, {"type": "position", "time": 118702, "x": null, "y": 0.5316666666666666}, {"type": "position", "time": 118752, "x": null, "y": 0.5316666666666666}, {"type": "position", "time": 118802, "x": null, "y": 0.5316666666666666}, {"type": "position", "time": 118852, "x": null, "y": 0.5316666666666666}, {"type": "position", "time": 118902, "x": null, "y": 0.5316666666666666}, {"type": "position", "time": 118952, "x": null, "y": 0.5316666666666666}, {"type": "position", "time": 119002, "x": null, "y": 0.5316666666666666}, {"type": "position", "time": 119052, "x": null, "y": 0.5316666666666666}, {"type": "position", "time": 119102, "x": null, "y": 0.5316666666666666}, {"type": "position", "time": 119152, "x": null, "y": 0.5316666666666666}, {"type": "position", "time": 119202, "x": null, "y": 0.5316666666666666}, {"type": "position", "time": 119252, "x": null, "y": 0.5316666666666666}, {"type": "position", "time": 119302, "x": null, "y": 0.5316666666666666}, {"type": "position", "time": 119352, "x": null, "y": 0.5316666666666666}, {"type": "position", "time": 119402, "x": null, "y": 0.5316666666666666}, {"type": "position", "time": 119452, "x": null, "y": 0.5316666666666666}, {"type": "position", "time": 119503, "x": null, "y": 0.5316666666666666}, {"type": "position", "time": 119552, "x": null, "y": 0.5316666666666666}, {"type": "position", "time": 119602, "x": null, "y": 0.5316666666666666}, {"type": "position", "time": 119652, "x": null, "y": 0.5316666666666666}, {"type": "position", "time": 119702, "x": null, "y": 0.5316666666666666}, {"type": "position", "time": 119752, "x": null, "y": 0.5316666666666666}, {"type": "position", "time": 119802, "x": null, "y": 0.5316666666666666}, {"type": "position", "time": 119852, "x": null, "y": 0.5316666666666666}, {"type": "position", "time": 119902, "x": null, "y": 0.5316666666666666}, {"type": "position", "time": 119952, "x": null, "y": 0.5316666666666666}, {"type": "position", "time": 120002, "x": null, "y": 0.5316666666666666}, {"type": "position", "time": 120052, "x": null, "y": 0.5316666666666666}, {"type": "position", "time": 120103, "x": null, "y": 0.5316666666666666}, {"type": "position", "time": 120152, "x": null, "y": 0.5316666666666666}, {"type": "position", "time": 120202, "x": null, "y": 0.5316666666666666}, {"type": "position", "time": 120252, "x": null, "y": 0.5316666666666666}, {"type": "position", "time": 120302, "x": null, "y": 0.5316666666666666}, {"type": "position", "time": 120352, "x": null, "y": 0.5316666666666666}, {"type": "position", "time": 120402, "x": null, "y": 0.5316666666666666}, {"type": "position", "time": 120452, "x": null, "y": 0.5316666666666666}, {"type": "position", "time": 120502, "x": null, "y": 0.5316666666666666}, {"type": "position", "time": 120552, "x": null, "y": 0.5316666666666666}, {"type": "position", "time": 120602, "x": null, "y": 0.5316666666666666}, {"type": "position", "time": 120652, "x": null, "y": 0.5316666666666666}, {"type": "keyup", "time": 120690, "key": "H", "keyCode": 72}, {"type": "position", "time": 120703, "x": null, "y": 0.5316666666666666}, {"type": "position", "time": 120752, "x": null, "y": 0.5316666666666666}, {"type": "position", "time": 120803, "x": null, "y": 0.5316666666666666}, {"type": "keyup", "time": 120838, "key": "E", "keyCode": 69}, {"type": "position", "time": 120852, "x": null, "y": 0.5316666666666666}, {"type": "position", "time": 120902, "x": null, "y": 0.5316666666666666}, {"type": "position", "time": 120952, "x": null, "y": 0.5316666666666666}, {"type": "keyup", "time": 120953, "key": " ", "keyCode": 32}, {"type": "position", "time": 121002, "x": null, "y": 0.5316666666666666}, {"type": "position", "time": 121052, "x": null, "y": 0.5316666666666666}, {"type": "keyup", "time": 121066, "key": "H", "keyCode": 72}, {"type": "position", "time": 121102, "x": null, "y": 0.5316666666666666}, {"type": "position", "time": 121153, "x": null, "y": 0.5316666666666666}, {"type": "keyup", "time": 121155, "key": "A", "keyCode": 65}, {"type": "position", "time": 121202, "x": null, "y": 0.5316666666666666}, {"type": "position", "time": 121252, "x": null, "y": 0.5316666666666666}, {"type": "keyup", "time": 121262, "key": "D", "keyCode": 68}, {"type": "position", "time": 121302, "x": null, "y": 0.5316666666666666}, {"type": "keyup", "time": 121341, "key": " ", "keyCode": 32}, {"type": "position", "time": 121352, "x": null, "y": 0.5316666666666666}, {"type": "position", "time": 121402, "x": null, "y": 0.5316666666666666}, {"type": "keyup", "time": 121417, "key": "A", "keyCode": 65}, {"type": "position", "time": 121452, "x": null, "y": 0.5316666666666666}, {"type": "position", "time": 121503, "x": null, "y": 0.5316666666666666}, {"type": "position", "time": 121552, "x": null, "y": 0.5316666666666666}, {"type": "keyup", "time": 121564, "key": "N", "keyCode": 78}, {"type": "position", "time": 121602, "x": null, "y": 0.5316666666666666}, {"type": "position", "time": 121652, "x": null, "y": 0.5316666666666666}, {"type": "keyup", "time": 121703, "key": " ", "keyCode": 32}, {"type": "position", "time": 121703, "x": null, "y": 0.5316666666666666}, {"type": "position", "time": 121752, "x": null, "y": 0.5316666666666666}, {"type": "keyup", "time": 121795, "key": "I", "keyCode": 73}, {"type": "position", "time": 121802, "x": null, "y": 0.5316666666666666}, {"type": "position", "time": 121852, "x": null, "y": 0.5316666666666666}, {"type": "position", "time": 121902, "x": null, "y": 0.5316666666666666}, {"type": "position", "time": 121955, "x": null, "y": 0.5316666666666666}, {"type": "position", "time": 122002, "x": null, "y": 0.5316666666666666}, {"type": "position", "time": 122052, "x": null, "y": 0.5316666666666666}, {"type": "keyup", "time": 122083, "key": "N", "keyCode": 78}, {"type": "position", "time": 122102, "x": null, "y": 0.5316666666666666}, {"type": "position", "time": 122152, "x": null, "y": 0.5316666666666666}, {"type": "position", "time": 122202, "x": null, "y": 0.5316666666666666}, {"type": "position", "time": 122252, "x": null, "y": 0.5316666666666666}, {"type": "keyup", "time": 122260, "key": "T", "keyCode": 84}, {"type": "position", "time": 122302, "x": null, "y": 0.5316666666666666}, {"type": "position", "time": 122352, "x": null, "y": 0.5316666666666666}, {"type": "position", "time": 122402, "x": null, "y": 0.5316666666666666}, {"type": "position", "time": 122453, "x": null, "y": 0.5316666666666666}, {"type": "position", "time": 122503, "x": null, "y": 0.5316666666666666}, {"type": "keyup", "time": 122515, "key": "E", "keyCode": 69}, {"type": "position", "time": 122552, "x": null, "y": 0.5316666666666666}, {"type": "position", "time": 122602, "x": null, "y": 0.5316666666666666}, {"type": "position", "time": 122652, "x": null, "y": 0.5316666666666666}, {"type": "position", "time": 122702, "x": null, "y": 0.5316666666666666}, {"type": "keyup", "time": 122706, "key": "R", "keyCode": 82}, {"type": "position", "time": 122752, "x": null, "y": 0.5316666666666666}, {"type": "position", "time": 122803, "x": null, "y": 0.5316666666666666}, {"type": "position", "time": 122853, "x": null, "y": 0.5316666666666666}, {"type": "keyup", "time": 122881, "key": "E", "keyCode": 69}, {"type": "position", "time": 122902, "x": null, "y": 0.5316666666666666}, {"type": "position", "time": 122952, "x": null, "y": 0.5316666666666666}, {"type": "position", "time": 123002, "x": null, "y": 0.5316666666666666}, {"type": "position", "time": 123052, "x": null, "y": 0.5316666666666666}, {"type": "keyup", "time": 123082, "key": "S", "keyCode": 83}, {"type": "position", "time": 123102, "x": null, "y": 0.5316666666666666}, {"type": "position", "time": 123152, "x": null, "y": 0.5316666666666666}, {"type": "position", "time": 123202, "x": null, "y": 0.5316666666666666}, {"type": "position", "time": 123252, "x": null, "y": 0.5316666666666666}, {"type": "position", "time": 123303, "x": null, "y": 0.5316666666666666}, {"type": "keyup", "time": 123309, "key": "T", "keyCode": 84}, {"type": "position", "time": 123353, "x": null, "y": 0.5316666666666666}, {"type": "keyup", "time": 123398, "key": " ", "keyCode": 32}, {"type": "position", "time": 123402, "x": null, "y": 0.5316666666666666}, {"type": "position", "time": 123452, "x": null, "y": 0.5316666666666666}, {"type": "position", "time": 123502, "x": null, "y": 0.5316666666666666}, {"type": "keyup", "time": 123507, "key": "I", "keyCode": 73}, {"type": "position", "time": 123552, "x": null, "y": 0.5316666666666666}, {"type": "position", "time": 123602, "x": null, "y": 0.5316666666666666}, {"type": "position", "time": 123654, "x": null, "y": 0.5316666666666666}, {"type": "position", "time": 123702, "x": null, "y": 0.5316666666666666}, {"type": "position", "time": 123752, "x": null, "y": 0.5316666666666666}, {"type": "keyup", "time": 123773, "key": "N", "keyCode": 78}, {"type": "position", "time": 123802, "x": null, "y": 0.5316666666666666}, {"type": "position", "time": 123853, "x": null, "y": 0.5316666666666666}, {"type": "position", "time": 123903, "x": null, "y": 0.5316666666666666}, {"type": "keyup", "time": 123904, "key": " ", "keyCode": 32}, {"type": "position", "time": 123952, "x": null, "y": 0.5316666666666666}, {"type": "position", "time": 124002, "x": null, "y": 0.5316666666666666}, {"type": "position", "time": 124052, "x": null, "y": 0.5316666666666666}, {"type": "position", "time": 124102, "x": null, "y": 0.5316666666666666}, {"type": "keyup", "time": 124151, "key": "O", "keyCode": 79}, {"type": "position", "time": 124152, "x": null, "y": 0.5316666666666666}, {"type": "position", "time": 124202, "x": null, "y": 0.5316666666666666}, {"type": "position", "time": 124252, "x": null, "y": 0.5316666666666666}, {"type": "position", "time": 124302, "x": null, "y": 0.5316666666666666}, {"type": "position", "time": 124352, "x": null, "y": 0.5316666666666666}, {"type": "keyup", "time": 124361, "key": "O", "keyCode": 79}, {"type": "position", "time": 124402, "x": null, "y": 0.5316666666666666}, {"type": "position", "time": 124452, "x": null, "y": 0.5316666666666666}, {"type": "position", "time": 124502, "x": null, "y": 0.5316666666666666}, {"type": "position", "time": 124552, "x": null, "y": 0.5316666666666666}, {"type": "position", "time": 124602, "x": null, "y": 0.5316666666666666}, {"type": "keyup", "time": 124638, "key": "K", "keyCode": 75}, {"type": "position", "time": 124652, "x": null, "y": 0.5316666666666666}, {"type": "position", "time": 124702, "x": null, "y": 0.5316666666666666}, {"type": "position", "time": 124752, "x": null, "y": 0.5316666666666666}, {"type": "position", "time": 124803, "x": null, "y": 0.5316666666666666}, {"type": "position", "time": 124853, "x": null, "y": 0.5316666666666666}, {"type": "position", "time": 124902, "x": null, "y": 0.5316666666666666}, {"type": "position", "time": 124952, "x": null, "y": 0.5316666666666666}, {"type": "position", "time": 125002, "x": null, "y": 0.5316666666666666}, {"type": "position", "time": 125052, "x": null, "y": 0.5316666666666666}, {"type": "position", "time": 125102, "x": null, "y": 0.5316666666666666}, {"type": "keyup", "time": 125125, "key": "\b", "keyCode": 8}, {"type": "position", "time": 125152, "x": null, "y": 0.5316666666666666}, {"type": "position", "time": 125202, "x": null, "y": 0.5316666666666666}, {"type": "position", "time": 125252, "x": null, "y": 0.5316666666666666}, {"type": "position", "time": 125302, "x": null, "y": 0.5316666666666666}, {"type": "keyup", "time": 125305, "key": "\b", "keyCode": 8}, {"type": "position", "time": 125352, "x": null, "y": 0.5316666666666666}, {"type": "position", "time": 125402, "x": null, "y": 0.5316666666666666}, {"type": "position", "time": 125454, "x": null, "y": 0.5316666666666666}, {"type": "keyup", "time": 125488, "key": "\b", "keyCode": 8}, {"type": "position", "time": 125503, "x": null, "y": 0.5316666666666666}, {"type": "position", "time": 125553, "x": null, "y": 0.5316666666666666}, {"type": "position", "time": 125602, "x": null, "y": 0.5316666666666666}, {"type": "position", "time": 125652, "x": null, "y": 0.5316666666666666}, {"type": "keyup", "time": 125690, "key": "C", "keyCode": 67}, {"type": "position", "time": 125702, "x": null, "y": 0.5316666666666666}, {"type": "position", "time": 125752, "x": null, "y": 0.5316666666666666}, {"type": "keyup", "time": 125797, "key": "O", "keyCode": 79}, {"type": "position", "time": 125802, "x": null, "y": 0.5316666666666666}, {"type": "position", "time": 125852, "x": null, "y": 0.5316666666666666}, {"type": "position", "time": 125902, "x": null, "y": 0.5316666666666666}, {"type": "position", "time": 125952, "x": null, "y": 0.5316666666666666}, {"type": "position", "time": 126002, "x": null, "y": 0.5316666666666666}, {"type": "keyup", "time": 126020, "key": "O", "keyCode": 79}, {"type": "position", "time": 126052, "x": null, "y": 0.5316666666666666}, {"type": "position", "time": 126102, "x": null, "y": 0.5316666666666666}, {"type": "position", "time": 126152, "x": null, "y": 0.5316666666666666}, {"type": "position", "time": 126202, "x": null, "y": 0.5316666666666666}, {"type": "position", "time": 126252, "x": null, "y": 0.5316666666666666}, {"type": "position", "time": 126302, "x": null, "y": 0.5316666666666666}, {"type": "position", "time": 126352, "x": null, "y": 0.5316666666666666}, {"type": "keyup", "time": 126355, "key": "\b", "keyCode": 8}, {"type": "position", "time": 126403, "x": null, "y": 0.5316666666666666}, {"type": "position", "time": 126453, "x": null, "y": 0.5316666666666666}, {"type": "position", "time": 126503, "x": null, "y": 0.5316666666666666}, {"type": "keyup", "time": 126515, "key": "\b", "keyCode": 8}, {"type": "position", "time": 126552, "x": null, "y": 0.5316666666666666}, {"type": "position", "time": 126602, "x": null, "y": 0.5316666666666666}, {"type": "position", "time": 126652, "x": null, "y": 0.5316666666666666}, {"type": "keyup", "time": 126702, "key": "\b", "keyCode": 8}, {"type": "position", "time": 126702, "x": null, "y": 0.5316666666666666}, {"type": "position", "time": 126752, "x": null, "y": 0.5316666666666666}, {"type": "position", "time": 126802, "x": null, "y": 0.5316666666666666}, {"type": "keyup", "time": 126851, "key": "F", "keyCode": 70}, {"type": "position", "time": 126852, "x": null, "y": 0.5316666666666666}, {"type": "position", "time": 126902, "x": null, "y": 0.5316666666666666}, {"type": "keyup", "time": 126949, "key": "O", "keyCode": 79}, {"type": "position", "time": 126952, "x": null, "y": 0.5316666666666666}, {"type": "position", "time": 127002, "x": null, "y": 0.5316666666666666}, {"type": "position", "time": 127053, "x": null, "y": 0.5316666666666666}, {"type": "position", "time": 127103, "x": null, "y": 0.5316666666666666}, {"type": "position", "time": 127152, "x": null, "y": 0.5316666666666666}, {"type": "keyup", "time": 127171, "key": "O", "keyCode": 79}, {"type": "position", "time": 127202, "x": null, "y": 0.5316666666666666}, {"type": "position", "time": 127252, "x": null, "y": 0.5316666666666666}, {"type": "keyup", "time": 127256, "key": "D", "keyCode": 68}, {"type": "position", "time": 127302, "x": null, "y": 0.5316666666666666}, {"type": "position", "time": 127352, "x": null, "y": 0.5316666666666666}, {"type": "position", "time": 127402, "x": null, "y": 0.5316666666666666}, {"type": "position", "time": 127452, "x": null, "y": 0.5316666666666666}, {"type": "keyup", "time": 127470, "key": "\u00be", "keyCode": 190}, {"type": "position", "time": 127502, "x": null, "y": 0.5316666666666666}, {"type": "position", "time": 127553, "x": null, "y": 0.5316666666666666}, {"type": "position", "time": 127603, "x": null, "y": 0.5316666666666666}, {"type": "position", "time": 127653, "x": null, "y": 0.5316666666666666}, {"type": "position", "time": 127702, "x": null, "y": 0.5316666666666666}, {"type": "position", "time": 127752, "x": null, "y": 0.5316666666666666}, {"type": "position", "time": 127802, "x": null, "y": 0.5316666666666666}, {"type": "position", "time": 127852, "x": null, "y": 0.5316666666666666}, {"type": "position", "time": 127902, "x": null, "y": 0.5316666666666666}, {"type": "position", "time": 127952, "x": null, "y": 0.5316666666666666}, {"type": "position", "time": 128002, "x": null, "y": 0.5483333333333333}, {"type": "position", "time": 128052, "x": null, "y": 0.5833333333333334}, {"type": "position", "time": 128103, "x": null, "y": 0.5983333333333334}, {"type": "position", "time": 128153, "x": null, "y": 0.6066666666666667}, {"type": "position", "time": 128203, "x": null, "y": 0.62}, {"type": "position", "time": 128253, "x": null, "y": 0.625}, {"type": "position", "time": 128302, "x": null, "y": 0.6333333333333333}, {"type": "position", "time": 128352, "x": null, "y": 0.6383333333333333}, {"type": "position", "time": 128403, "x": null, "y": 0.6383333333333333}, {"type": "position", "time": 128452, "x": null, "y": 0.6383333333333333}, {"type": "position", "time": 128502, "x": null, "y": 0.6383333333333333}, {"type": "position", "time": 128552, "x": null, "y": 0.6383333333333333}, {"type": "position", "time": 128602, "x": null, "y": 0.6383333333333333}, {"type": "position", "time": 128660, "x": null, "y": 0.6383333333333333}, {"type": "position", "time": 128702, "x": null, "y": 0.64}, {"type": "position", "time": 128752, "x": null, "y": 0.64}, {"type": "position", "time": 128803, "x": null, "y": 0.64}, {"type": "position", "time": 128852, "x": null, "y": 0.64}, {"type": "position", "time": 128902, "x": null, "y": 0.64}, {"type": "position", "time": 128952, "x": null, "y": 0.64}, {"type": "position", "time": 129002, "x": null, "y": 0.64}, {"type": "position", "time": 129053, "x": null, "y": 0.64}, {"type": "position", "time": 129103, "x": null, "y": 0.64}, {"type": "position", "time": 129152, "x": null, "y": 0.64}, {"type": "position", "time": 129202, "x": null, "y": 0.64}, {"type": "position", "time": 129252, "x": null, "y": 0.64}, {"type": "position", "time": 129302, "x": null, "y": 0.64}, {"type": "position", "time": 129352, "x": null, "y": 0.64}, {"type": "position", "time": 129402, "x": null, "y": 0.64}, {"type": "position", "time": 129453, "x": null, "y": 0.64}, {"type": "position", "time": 129503, "x": null, "y": 0.64}, {"type": "position", "time": 129552, "x": null, "y": 0.64}, {"type": "position", "time": 129602, "x": null, "y": 0.64}, {"type": "position", "time": 129652, "x": null, "y": 0.64}, {"type": "position", "time": 129702, "x": null, "y": 0.64}, {"type": "position", "time": 129752, "x": null, "y": 0.64}, {"type": "position", "time": 129802, "x": null, "y": 0.64}, {"type": "position", "time": 129852, "x": null, "y": 0.64}, {"type": "position", "time": 129902, "x": null, "y": 0.64}, {"type": "position", "time": 129953, "x": null, "y": 0.64}, {"type": "position", "time": 130003, "x": null, "y": 0.64}, {"type": "position", "time": 130053, "x": null, "y": 0.64}, {"type": "position", "time": 130103, "x": null, "y": 0.64}, {"type": "position", "time": 130152, "x": null, "y": 0.64}, {"type": "position", "time": 130202, "x": null, "y": 0.64}, {"type": "position", "time": 130252, "x": null, "y": 0.64}, {"type": "position", "time": 130302, "x": null, "y": 0.64}, {"type": "position", "time": 130352, "x": null, "y": 0.64}, {"type": "position", "time": 130402, "x": null, "y": 0.64}, {"type": "position", "time": 130452, "x": null, "y": 0.64}, {"type": "position", "time": 130502, "x": null, "y": 0.64}, {"type": "position", "time": 130552, "x": null, "y": 0.64}, {"type": "position", "time": 130603, "x": null, "y": 0.64}, {"type": "position", "time": 130652, "x": null, "y": 0.64}, {"type": "position", "time": 130702, "x": null, "y": 0.64}, {"type": "position", "time": 130752, "x": null, "y": 0.64}, {"type": "position", "time": 130802, "x": null, "y": 0.64}, {"type": "position", "time": 130852, "x": null, "y": 0.64}, {"type": "position", "time": 130902, "x": null, "y": 0.64}, {"type": "position", "time": 130953, "x": null, "y": 0.64}, {"type": "position", "time": 131003, "x": null, "y": 0.64}, {"type": "position", "time": 131053, "x": null, "y": 0.64}, {"type": "position", "time": 131103, "x": null, "y": 0.64}, {"type": "position", "time": 131152, "x": null, "y": 0.64}, {"type": "position", "time": 131202, "x": null, "y": 0.64}, {"type": "position", "time": 131252, "x": null, "y": 0.64}, {"type": "position", "time": 131302, "x": null, "y": 0.64}, {"type": "position", "time": 131353, "x": null, "y": 0.64}, {"type": "position", "time": 131402, "x": null, "y": 0.64}, {"type": "position", "time": 131452, "x": null, "y": 0.64}, {"type": "position", "time": 131502, "x": null, "y": 0.64}, {"type": "position", "time": 131552, "x": null, "y": 0.64}, {"type": "position", "time": 131603, "x": null, "y": 0.64}, {"type": "position", "time": 131653, "x": null, "y": 0.64}, {"type": "position", "time": 131703, "x": null, "y": 0.64}, {"type": "position", "time": 131753, "x": null, "y": 0.64}, {"type": "position", "time": 131802, "x": null, "y": 0.64}, {"type": "position", "time": 131852, "x": null, "y": 0.64}, {"type": "position", "time": 131902, "x": null, "y": 0.64}, {"type": "position", "time": 131952, "x": null, "y": 0.64}, {"type": "position", "time": 132002, "x": null, "y": 0.64}, {"type": "position", "time": 132052, "x": null, "y": 0.64}, {"type": "position", "time": 132103, "x": null, "y": 0.64}, {"type": "position", "time": 132153, "x": null, "y": 0.64}, {"type": "position", "time": 132203, "x": null, "y": 0.64}, {"type": "position", "time": 132253, "x": null, "y": 0.64}, {"ty