{"ApprovalTime": "2016-03-10T21:41:27Z", "SubmitTime": "2016-03-10T21:40:29Z", "AssignmentId": "3FDJT1UU748BZ1SGKM09H0H82FP5KN", "HITId": "38G0E1M85M53D7EEUOHN21OJ7HQVU5", "answers": {"data": {"trials": [{"story": "beach", "time": 28495, "name": "Allison", "rt": 18992, "blocknum": 0, "qtype": "probability", "response": 1, "trialnum": 1, "gender": "female", "qnum": 0}, {"story": "beach", "time": 28495, "name": "Allison", "rt": 18992, "blocknum": 0, "qtype": "ungrammatical", "trialnum": 1, "gender": "female", "qnum": 0}, {"story": "beach", "time": 55609, "name": "Katie", "rt": 27111, "blocknum": 0, "qtype": "explanation", "response": "because she was under a shade", "trialnum": 2, "gender": "female", "qnum": 1}, {"story": "beach", "time": 62769, "name": "Katie", "rt": 7151, "blocknum": 0, "qtype": "probability", "response": 0.99, "trialnum": 3, "gender": "female", "qnum": 2}, {"story": "beach", "time": 62769, "name": "Katie", "rt": 7151, "blocknum": 0, "qtype": "ungrammatical", "trialnum": 3, "gender": "female", "qnum": 2}, {"story": "beach", "time": 93110, "name": "Andrew", "rt": 30336, "blocknum": 0, "qtype": "probability", "response": 1, "trialnum": 4, "gender": "male", "qnum": 3}, {"story": "beach", "time": 93110, "name": "Andrew", "rt": 30336, "blocknum": 0, "qtype": "ungrammatical", "response": true, "trialnum": 4, "gender": "male", "qnum": 3}, {"story": "beach", "time": 105787, "name": "Luis", "rt": 12672, "blocknum": 0, "qtype": "probability", "response": 0.99, "trialnum": 5, "gender": "male", "qnum": 4}, {"story": "beach", "time": 105787, "name": "Luis", "rt": 12672, "blocknum": 0, "qtype": "ungrammatical", "response": true, "trialnum": 5, "gender": "male", "qnum": 4}, {"story": "beach", "time": 141328, "name": "Anna", "rt": 35536, "blocknum": 0, "qtype": "probability", "response": 0.98, "trialnum": 6, "gender": "female", "qnum": 5}, {"story": "beach", "time": 141328, "name": "Anna", "rt": 35536, "blocknum": 0, "qtype": "ungrammatical", "response": true, "trialnum": 6, "gender": "female", "qnum": 5}, {"story": "coffee", "time": 153372, "name": "Connor", "rt": 12029, "blocknum": 1, "qtype": "probability", "response": 0.99, "trialnum": 8, "gender": "male", "qnum": 0}, {"story": "coffee", "time": 153372, "name": "Connor", "rt": 12029, "blocknum": 1, "qtype": "ungrammatical", "trialnum": 8, "gender": "male", "qnum": 0}, {"story": "coffee", "time": 302571, "name": "Cameron", "rt": 149197, "blocknum": 1, "qtype": "explanation", "response": "he is awake for more than 48 hours", "trialnum": 9, "gender": "male", "qnum": 1}, {"story": "coffee", "time": 307672, "name": "Cameron", "rt": 5094, "blocknum": 1, "qtype": "probability", "response": 0.99, "trialnum": 10, "gender": "male", "qnum": 2}, {"story": "coffee", "time": 307672, "name": "Cameron", "rt": 5094, "blocknum": 1, "qtype": "ungrammatical", "trialnum": 10, "gender": "male", "qnum": 2}, {"story": "coffee", "time": 351015, "name": "Rebecca", "rt": 43339, "blocknum": 1, "qtype": "probability", "response": 0.48, "trialnum": 11, "gender": "female", "qnum": 3}, {"story": "coffee", "time": 351015, "name": "Rebecca", "rt": 43339, "blocknum": 1, "qtype": "ungrammatical", "response": false, "trialnum": 11, "gender": "female", "qnum": 3}, {"story": "coffee", "time": 368864, "name": "Brian", "rt": 17836, "blocknum": 1, "qtype": "probability", "response": 0.99, "trialnum": 12, "gender": "male", "qnum": 4}, {"story": "coffee", "time": 368864, "name": "Brian", "rt": 17836, "blocknum": 1, "qtype": "ungrammatical", "response": false, "trialnum": 12, "gender": "male", "qnum": 4}, {"story": "coffee", "time": 374844, "name": "Alexander", "rt": 5976, "blocknum": 1, "qtype": "probability", "response": 0.02, "trialnum": 13, "gender": "male", "qnum": 5}, {"story": "coffee", "time": 374844, "name": "Alexander", "rt": 5976, "blocknum": 1, "qtype": "ungrammatical", "response": false, "trialnum": 13, "gender": "male", "qnum": 5}, {"story": "fitness", "time": 381686, "name": "Dustin", "rt": 6836, "blocknum": 2, "qtype": "probability", "response": 0.99, "trialnum": 15, "gender": "male", "qnum": 0}, {"story": "fitness", "time": 381686, "name": "Dustin", "rt": 6836, "blocknum": 2, "qtype": "ungrammatical", "trialnum": 15, "gender": "male", "qnum": 0}, {"story": "fitness", "time": 426037, "name": "Gabriel", "rt": 44349, "blocknum": 2, "qtype": "explanation", "response": "his calorie intake is too high", "trialnum": 16, "gender": "male", "qnum": 1}, {"story": "fitness", "time": 475841, "name": "Gabriel", "rt": 49798, "blocknum": 2, "qtype": "probability", "response": 0.98, "trialnum": 17, "gender": "male", "qnum": 2}, {"story": "fitness", "time": 475841, "name": "Gabriel", "rt": 49798, "blocknum": 2, "qtype": "ungrammatical", "trialnum": 17, "gender": "male", "qnum": 2}, {"story": "fitness", "time": 485009, "name": "Michelle", "rt": 9163, "blocknum": 2, "qtype": "probability", "response": 0.51, "trialnum": 18, "gender": "female", "qnum": 3}, {"story": "fitness", "time": 485009, "name": "Michelle", "rt": 9163, "blocknum": 2, "qtype": "ungrammatical", "response": false, "trialnum": 18, "gender": "female", "qnum": 3}, {"story": "fitness", "time": 495782, "name": "Miranda", "rt": 10770, "blocknum": 2, "qtype": "probability", "response": 0.98, "trialnum": 19, "gender": "female", "qnum": 4}, {"story": "fitness", "time": 495782, "name": "Miranda", "rt": 10770, "blocknum": 2, "qtype": "ungrammatical", "response": false, "trialnum": 19, "gender": "female", "qnum": 4}, {"story": "fitness", "time": 500139, "name": "Anthony", "rt": 4353, "blocknum": 2, "qtype": "probability", "response": 0.01, "trialnum": 20, "gender": "male", "qnum": 5}, {"story": "fitness", "time": 500139, "name": "Anthony", "rt": 4353, "blocknum": 2, "qtype": "ungrammatical", "response": false, "trialnum": 20, "gender": "male", "qnum": 5}, {"story": "Japan", "time": 506805, "name": "Maria", "rt": 6662, "blocknum": 3, "qtype": "probability", "response": 0.98, "trialnum": 22, "gender": "female", "qnum": 0}, {"story": "Japan", "time": 506805, "name": "Maria", "rt": 6662, "blocknum": 3, "qtype": "ungrammatical", "trialnum": 22, "gender": "female", "qnum": 0}, {"story": "Japan", "time": 574343, "name": "Corey", "rt": 67536, "blocknum": 3, "qtype": "explanation", "response": "he was wearing earplugs the whole time", "trialnum": 23, "gender": "male", "qnum": 1}, {"story": "Japan", "time": 578403, "name": "Corey", "rt": 4056, "blocknum": 3, "qtype": "probability", "response": 0.99, "trialnum": 24, "gender": "male", "qnum": 2}, {"story": "Japan", "time": 578403, "name": "Corey", "rt": 4056, "blocknum": 3, "qtype": "ungrammatical", "trialnum": 24, "gender": "male", "qnum": 2}, {"story": "Japan", "time": 583224, "name": "Jennifer", "rt": 4818, "blocknum": 3, "qtype": "probability", "response": 0.51, "trialnum": 25, "gender": "female", "qnum": 3}, {"story": "Japan", "time": 583224, "name": "Jennifer", "rt": 4818, "blocknum": 3, "qtype": "ungrammatical", "response": false, "trialnum": 25, "gender": "female", "qnum": 3}, {"story": "Japan", "time": 595870, "name": "Erin", "rt": 12642, "blocknum": 3, "qtype": "probability", "response": 0.97, "trialnum": 26, "gender": "female", "qnum": 4}, {"story": "Japan", "time": 595870, "name": "Erin", "rt": 12642, "blocknum": 3, "qtype": "ungrammatical", "response": false, "trialnum": 26, "gender": "female", "qnum": 4}, {"story": "Japan", "time": 603215, "name": "Chelsea", "rt": 7342, "blocknum": 3, "qtype": "probability", "response": 0.98, "trialnum": 27, "gender": "female", "qnum": 5}, {"story": "Japan", "time": 603215, "name": "Chelsea", "rt": 7342, "blocknum": 3, "qtype": "ungrammatical", "response": true, "trialnum": 27, "gender": "female", "qnum": 5}, {"story": "reading", "time": 614901, "name": "Robert", "rt": 11680, "blocknum": 4, "qtype": "probability", "response": 0.99, "trialnum": 29, "gender": "male", "qnum": 0}, {"story": "reading", "time": 614901, "name": "Robert", "rt": 11680, "blocknum": 4, "qtype": "ungrammatical", "trialnum": 29, "gender": "male", "qnum": 0}, {"story": "reading", "time": 639071, "name": "Brittany", "rt": 24169, "blocknum": 4, "qtype": "explanation", "response": "she was resting her eyes every so often", "trialnum": 30, "gender": "female", "qnum": 1}, {"story": "reading", "time": 641731, "name": "Brittany", "rt": 2657, "blocknum": 4, "qtype": "probability", "response": 0.98, "trialnum": 31, "gender": "female", "qnum": 2}, {"story": "reading", "time": 641731, "name": "Brittany", "rt": 2657, "blocknum": 4, "qtype": "ungrammatical", "trialnum": 31, "gender": "female", "qnum": 2}, {"story": "reading", "time": 650052, "name": "Lindsey", "rt": 8317, "blocknum": 4, "qtype": "probability", "response": 0.98, "trialnum": 32, "gender": "female", "qnum": 3}, {"story": "reading", "time": 650052, "name": "Lindsey", "rt": 8317, "blocknum": 4, "qtype": "ungrammatical", "response": false, "trialnum": 32, "gender": "female", "qnum": 3}, {"story": "reading", "time": 656741, "name": "Carlos", "rt": 6684, "blocknum": 4, "qtype": "probability", "response": 0.99, "trialnum": 33, "gender": "male", "qnum": 4}, {"story": "reading", "time": 656741, "name": "Carlos", "rt": 6684, "blocknum": 4, "qtype": "ungrammatical", "response": false, "trialnum": 33, "gender": "male", "qnum": 4}, {"story": "reading", "time": 666412, "name": "Samantha", "rt": 9667, "blocknum": 4, "qtype": "probability", "response": 0.98, "trialnum": 34, "gender": "female", "qnum": 5}, {"story": "reading", "time": 666412, "name": "Samantha", "rt": 9667, "blocknum": 4, "qtype": "ungrammatical", "response": false, "trialnum": 34, "gender": "female", "qnum": 5}, {"story": "cooking", "time": 669465, "name": "Matthew", "rt": 3049, "blocknum": 5, "qtype": "probability", "response": 0.97, "trialnum": 36, "gender": "male", "qnum": 0}, {"story": "cooking", "time": 669465, "name": "Matthew", "rt": 3049, "blocknum": 5, "qtype": "ungrammatical", "trialnum": 36, "gender": "male", "qnum": 0}, {"story": "cooking", "time": 694841, "name": "Kristen", "rt": 25374, "blocknum": 5, "qtype": "explanation", "response": "she got in a private group", "trialnum": 37, "gender": "female", "qnum": 1}, {"story": "cooking", "time": 698029, "name": "Kristen", "rt": 3184, "blocknum": 5, "qtype": "probability", "response": 0.99, "trialnum": 38, "gender": "female", "qnum": 2}, {"story": "cooking", "time": 698029, "name": "Kristen", "rt": 3184, "blocknum": 5, "qtype": "ungrammatical", "trialnum": 38, "gender": "female", "qnum": 2}, {"story": "cooking", "time": 700396, "name": "Greg", "rt": 2363, "blocknum": 5, "qtype": "probability", "response": 0.98, "trialnum": 39, "gender": "male", "qnum": 3}, {"story": "cooking", "time": 700396, "name": "Greg", "rt": 2363, "blocknum": 5, "qtype": "ungrammatical", "response": false, "trialnum": 39, "gender": "male", "qnum": 3}, {"story": "cooking", "time": 702323, "name": "Christina", "rt": 1922, "blocknum": 5, "qtype": "probability", "response": 0.97, "trialnum": 40, "gender": "female", "qnum": 4}, {"story": "cooking", "time": 702323, "name": "Christina", "rt": 1922, "blocknum": 5, "qtype": "ungrammatical", "response": false, "trialnum": 40, "gender": "female", "qnum": 4}, {"story": "cooking", "time": 704443, "name": "Bradley", "rt": 2115, "blocknum": 5, "qtype": "probability", "response": 0.98, "trialnum": 41, "gender": "male", "qnum": 5}, {"story": "cooking", "time": 704443, "name": "Bradley", "rt": 2115, "blocknum": 5, "qtype": "ungrammatical", "response": false, "trialnum": 41, "gender": "male", "qnum": 5}, {"story": "painting", "time": 706178, "name": "Shannon", "rt": 1731, "blocknum": 6, "qtype": "probability", "response": 0.99, "trialnum": 43, "gender": "female", "qnum": 0}, {"story": "painting", "time": 706178, "name": "Shannon", "rt": 1731, "blocknum": 6, "qtype": "ungrammatical", "trialnum": 43, "gender": "female", "qnum": 0}, {"story": "painting", "time": 730839, "name": "Courtney", "rt": 24660, "blocknum": 6, "qtype": "explanation", "response": "she was wearing apron", "trialnum": 44, "gender": "female", "qnum": 1}, {"story": "painting", "time": 732549, "name": "Courtney", "rt": 1706, "blocknum": 6, "qtype": "probability", "response": 0.99, "trialnum": 45, "gender": "female", "qnum": 2}, {"story": "painting", "time": 732549, "name": "Courtney", "rt": 1706, "blocknum": 6, "qtype": "ungrammatical", "trialnum": 45, "gender": "female", "qnum": 2}, {"story": "painting", "time": 735227, "name": "Savannah", "rt": 2674, "blocknum": 6, "qtype": "probability", "response": 0.99, "trialnum": 46, "gender": "female", "qnum": 3}, {"story": "painting", "time": 735227, "name": "Savannah", "rt": 2674, "blocknum": 6, "qtype": "ungrammatical", "response": false, "trialnum": 46, "gender": "female", "qnum": 3}, {"story": "painting", "time": 736714, "name": "Samuel", "rt": 1484, "blocknum": 6, "qtype": "probability", "response": 0.98, "trialnum": 47, "gender": "male", "qnum": 4}, {"story": "painting", "time": 736714, "name": "Samuel", "rt": 1484, "blocknum": 6, "qtype": "ungrammatical", "response": false, "trialnum": 47, "gender": "male", "qnum": 4}, {"story": "painting", "time": 739006, "name": "Andrea", "rt": 2289, "blocknum": 6, "qtype": "probability", "response": 0.99, "trialnum": 48, "gender": "female", "qnum": 5}, {"story": "painting", "time": 739006, "name": "Andrea", "rt": 2289, "blocknum": 6, "qtype": "ungrammatical", "response": false, "trialnum": 48, "gender": "female", "qnum": 5}, {"story": "insomnia", "time": 747328, "name": "Dylan", "rt": 8319, "blocknum": 7, "qtype": "probability", "response": 0.98, "trialnum": 50, "gender": "male", "qnum": 0}, {"story": "insomnia", "time": 747328, "name": "Dylan", "rt": 8319, "blocknum": 7, "qtype": "ungrammatical", "trialnum": 50, "gender": "male", "qnum": 0}, {"story": "insomnia", "time": 770918, "name": "Timothy", "rt": 23588, "blocknum": 7, "qtype": "explanation", "response": "his mind is strong", "trialnum": 51, "gender": "male", "qnum": 1}, {"story": "insomnia", "time": 773059, "name": "Timothy", "rt": 2138, "blocknum": 7, "qtype": "probability", "response": 1, "trialnum": 52, "gender": "male", "qnum": 2}, {"story": "insomnia", "time": 773059, "name": "Timothy", "rt": 2138, "blocknum": 7, "qtype": "ungrammatical", "trialnum": 52, "gender": "male", "qnum": 2}, {"story": "insomnia", "time": 776447, "name": "Stephanie", "rt": 3385, "blocknum": 7, "qtype": "probability", "response": 0.98, "trialnum": 53, "gender": "female", "qnum": 3}, {"story": "insomnia", "time": 776447, "name": "Stephanie", "rt": 3385, "blocknum": 7, "qtype": "ungrammatical", "response": false, "trialnum": 53, "gender": "female", "qnum": 3}, {"story": "insomnia", "time": 778007, "name": "Natalie", "rt": 1557, "blocknum": 7, "qtype": "probability", "response": 0.99, "trialnum": 54, "gender": "female", "qnum": 4}, {"story": "insomnia", "time": 778007, "name": "Natalie", "rt": 1557, "blocknum": 7, "qtype": "ungrammatical", "response": false, "trialnum": 54, "gender": "female", "qnum": 4}, {"story": "insomnia", "time": 779567, "name": "Erica", "rt": 1557, "blocknum": 7, "qtype": "probability", "response": 0.99, "trialnum": 55, "gender": "female", "qnum": 5}, {"story": "insomnia", "time": 779567, "name": "Erica", "rt": 1557, "blocknum": 7, "qtype": "ungrammatical", "response": false, "trialnum": 55, "gender": "female", "qnum": 5}, {"story": "guitar", "time": 781366, "name": "Sarah", "rt": 1795, "blocknum": 8, "qtype": "probability", "response": 0.99, "trialnum": 57, "gender": "female", "qnum": 0}, {"story": "guitar", "time": 781366, "name": "Sarah", "rt": 1795, "blocknum": 8, "qtype": "ungrammatical", "trialnum": 57, "gender": "female", "qnum": 0}, {"story": "guitar", "time": 802836, "name": "Kayla", "rt": 21469, "blocknum": 8, "qtype": "explanation", "response": "she was wearing writing gloves", "trialnum": 58, "gender": "female", "qnum": 1}, {"story": "guitar", "time": 804761, "name": "Kayla", "rt": 1922, "blocknum": 8, "qtype": "probability", "response": 0.98, "trialnum": 59, "gender": "female", "qnum": 2}, {"story": "guitar", "time": 804761, "name": "Kayla", "rt": 1922, "blocknum": 8, "qtype": "ungrammatical", "trialnum": 59, "gender": "female", "qnum": 2}, {"story": "guitar", "time": 807959, "name": "Jeremy", "rt": 3195, "blocknum": 8, "qtype": "probability", "response": 0.99, "trialnum": 60, "gender": "male", "qnum": 3}, {"story": "guitar", "time": 807959, "name": "Jeremy", "rt": 3195, "blocknum": 8, "qtype": "ungrammatical", "response": false, "trialnum": 60, "gender": "male", "qnum": 3}, {"story": "guitar", "time": 809510, "name": "Alyssa", "rt": 1547, "blocknum": 8, "qtype": "probability", "response": 0.98, "trialnum": 61, "gender": "female", "qnum": 4}, {"story": "guitar", "time": 809510, "name": "Alyssa", "rt": 1547, "blocknum": 8, "qtype": "ungrammatical", "response": false, "trialnum": 61, "gender": "female", "qnum": 4}, {"story": "guitar", "time": 810981, "name": "Charles", "rt": 1466, "blocknum": 8, "qtype": "probability", "response": 1, "trialnum": 62, "gender": "male", "qnum": 5}, {"story": "guitar", "time": 810981, "name": "Charles", "rt": 1466, "blocknum": 8, "qtype": "ungrammatical", "response": false, "trialnum": 62, "gender": "male", "qnum": 5}], "events": [{"type": "position", "time": 74, "x": 0, "y": 0}, {"type": "position", "time": 111, "x": 0, "y": 0}, {"type": "position", "time": 161, "x": 0, "y": 0}, {"type": "position", "time": 211, "x": 0, "y": 0}, {"type": "position", "time": 261, "x": 0, "y": 0}, {"type": "position", "time": 311, "x": 0, "y": 0}, {"type": "position", "time": 361, "x": 0, "y": 0}, {"type": "position", "time": 411, "x": 0, "y": 0}, {"type": "position", "time": 461, "x": 0, "y": 0}, {"type": "position", "time": 511, "x": 0, "y": 0}, {"type": "position", "time": 561, "x": 0.3475965536326853, "y": 0.5235272303685542}, {"type": "position", "time": 611, "x": 0.3475965536326853, "y": 0.5218599461954059}, {"type": "position", "time": 661, "x": 0.3575993321544892, "y": 0.5468692087926298}, {"type": "position", "time": 711, "x": 0.3838566257742244, "y": 0.5568729138315194}, {"type": "position", "time": 761, "x": 0.3838566257742244, "y": 0.5568729138315194}, {"type": "position", "time": 811, "x": 0.3838566257742244, "y": 0.5568729138315194}, {"type": "position", "time": 861, "x": 0.377604889198097, "y": 0.5568729138315194}, {"type": "position", "time": 911, "x": 0.35384829020881275, "y": 0.5618747663509642}, {"type": "position", "time": 960, "x": 0.35259794289358726, "y": 0.5618747663509642}, {"type": "position", "time": 1010, "x": 0.35259794289358726, "y": 0.5602074821778159}, {"type": "position", "time": 1060, "x": 0.35259794289358726, "y": 0.5602074821778159}, {"type": "position", "time": 1110, "x": 0.35259794289358726, "y": 0.5602074821778159}, {"type": "position", "time": 1160, "x": 0.35259794289358726, "y": 0.5602074821778159}, {"type": "position", "time": 1210, "x": 0.35259794289358726, "y": 0.5602074821778159}, {"type": "position", "time": 1260, "x": 0.35259794289358726, "y": 0.5602074821778159}, {"type": "position", "time": 1310, "x": 0.35259794289358726, "y": 0.5602074821778159}, {"type": "position", "time": 1360, "x": 0.35259794289358726, "y": 0.5602074821778159}, {"type": "position", "time": 1410, "x": 0.35259794289358726, "y": 0.5602074821778159}, {"type": "position", "time": 1460, "x": 0.35259794289358726, "y": 0.5602074821778159}, {"type": "position", "time": 1510, "x": 0.35259794289358726, "y": 0.5585401980046677}, {"type": "position", "time": 1560, "x": 0.35259794289358726, "y": 0.5585401980046677}, {"type": "position", "time": 1610, "x": 0.35259794289358726, "y": 0.5585401980046677}, {"type": "position", "time": 1660, "x": 0.35259794289358726, "y": 0.5585401980046677}, {"type": "position", "time": 1710, "x": 0.35259794289358726, "y": 0.5585401980046677}, {"type": "position", "time": 1760, "x": 0.35259794289358726, "y": 0.5585401980046677}, {"type": "position", "time": 1810, "x": 0.35259794289358726, "y": 0.5585401980046677}, {"type": "position", "time": 1860, "x": 0.35259794289358726, "y": 0.5585401980046677}, {"type": "position", "time": 1910, "x": 0.35259794289358726, "y": 0.5585401980046677}, {"type": "position", "time": 1960, "x": 0.35259794289358726, "y": 0.5585401980046677}, {"type": "position", "time": 2010, "x": 0.35259794289358726, "y": 0.5585401980046677}, {"type": "position", "time": 2060, "x": 0.35259794289358726, "y": 0.5585401980046677}, {"type": "position", "time": 2110, "x": 0.35259794289358726, "y": 0.5585401980046677}, {"type": "position", "time": 2160, "x": 0.35259794289358726, "y": 0.5585401980046677}, {"type": "position", "time": 2210, "x": 0.35259794289358726, "y": 0.5585401980046677}, {"type": "position", "time": 2260, "x": 0.35259794289358726, "y": 0.5585401980046677}, {"type": "position", "time": 2310, "x": 0.35259794289358726, "y": 0.5585401980046677}, {"type": "position", "time": 2360, "x": 0.35259794289358726, "y": 0.5585401980046677}, {"type": "position", "time": 2410, "x": 0.35259794289358726, "y": 0.5585401980046677}, {"type": "position", "time": 2460, "x": 0.35259794289358726, "y": 0.5585401980046677}, {"type": "position", "time": 2510, "x": 0.35259794289358726, "y": 0.5585401980046677}, {"type": "position", "time": 2560, "x": 0.35259794289358726, "y": 0.5585401980046677}, {"type": "position", "time": 2610, "x": 0.35259794289358726, "y": 0.5585401980046677}, {"type": "position", "time": 2660, "x": 0.35259794289358726, "y": 0.5585401980046677}, {"type": "position", "time": 2710, "x": 0.35259794289358726, "y": 0.5585401980046677}, {"type": "position", "time": 2760, "x": 0.35259794289358726, "y": 0.5585401980046677}, {"type": "position", "time": 2810, "x": 0.35259794289358726, "y": 0.5585401980046677}, {"type": "position", "time": 2860, "x": 0.35259794289358726, "y": 0.5585401980046677}, {"type": "position", "time": 2910, "x": 0.35259794289358726, "y": 0.5585401980046677}, {"type": "position", "time": 2960, "x": 0.35259794289358726, "y": 0.5585401980046677}, {"type": "position", "time": 3010, "x": 0.35259794289358726, "y": 0.5585401980046677}, {"type": "position", "time": 3060, "x": 0.35259794289358726, "y": 0.5585401980046677}, {"type": "position", "time": 3110, "x": 0.35259794289358726, "y": 0.5585401980046677}, {"type": "position", "time": 3160, "x": 0.35259794289358726, "y": 0.5585401980046677}, {"type": "position", "time": 3210, "x": 0.35259794289358726, "y": 0.5585401980046677}, {"type": "position", "time": 3260, "x": 0.35259794289358726, "y": 0.5585401980046677}, {"type": "position", "time": 3310, "x": 0.35259794289358726, "y": 0.5585401980046677}, {"type": "position", "time": 3360, "x": 0.35259794289358726, "y": 0.5585401980046677}, {"type": "position", "time": 3410, "x": 0.35259794289358726, "y": 0.5585401980046677}, {"type": "position", "time": 3458, "x": 0.35259794289358726, "y": 0.5585401980046677}, {"type": "position", "time": 3508, "x": 0.35259794289358726, "y": 0.5585401980046677}, {"type": "position", "time": 3558, "x": 0.35259794289358726, "y": 0.5585401980046677}, {"type": "position", "time": 3608, "x": 0.35259794289358726, "y": 0.5585401980046677}, {"type": "position", "time": 3658, "x": 0.35259794289358726, "y": 0.5585401980046677}, {"type": "position", "time": 3708, "x": 0.35259794289358726, "y": 0.5585401980046677}, {"type": "position", "time": 3758, "x": 0.35259794289358726, "y": 0.5585401980046677}, {"type": "position", "time": 3808, "x": 0.35259794289358726, "y": 0.5585401980046677}, {"type": "position", "time": 3858, "x": 0.35259794289358726, "y": 0.5585401980046677}, {"type": "position", "time": 3908, "x": 0.35259794289358726, "y": 0.5585401980046677}, {"type": "position", "time": 3958, "x": 0.35259794289358726, "y": 0.5585401980046677}, {"type": "position", "time": 4008, "x": 0.35259794289358726, "y": 0.5585401980046677}, {"type": "position", "time": 4058, "x": 0.35259794289358726, "y": 0.5585401980046677}, {"type": "position", "time": 4108, "x": 0.35259794289358726, "y": 0.5585401980046677}, {"type": "position", "time": 4158, "x": 0.35259794289358726, "y": 0.5585401980046677}, {"type": "position", "time": 4208, "x": 0.35259794289358726, "y": 0.5585401980046677}, {"type": "position", "time": 4258, "x": 0.35259794289358726, "y": 0.5585401980046677}, {"type": "position", "time": 4308, "x": 0.35259794289358726, "y": 0.5585401980046677}, {"type": "position", "time": 4358, "x": 0.35259794289358726, "y": 0.5585401980046677}, {"type": "position", "time": 4408, "x": 0.35259794289358726, "y": 0.5585401980046677}, {"type": "position", "time": 4458, "x": 0.35259794289358726, "y": 0.5585401980046677}, {"type": "position", "time": 4508, "x": 0.35259794289358726, "y": 0.5585401980046677}, {"type": "position", "time": 4558, "x": 0.35259794289358726, "y": 0.5585401980046677}, {"type": "position", "time": 4608, "x": 0.35259794289358726, "y": 0.5585401980046677}, {"type": "position", "time": 4658, "x": 0.35259794289358726, "y": 0.5585401980046677}, {"type": "position", "time": 4708, "x": 0.35259794289358726, "y": 0.5585401980046677}, {"type": "position", "time": 4758, "x": 0.35259794289358726, "y": 0.5585401980046677}, {"type": "position", "time": 4808, "x": 0.35259794289358726, "y": 0.5585401980046677}, {"type": "position", "time": 4858, "x": 0.35259794289358726, "y": 0.5585401980046677}, {"type": "position", "time": 4908, "x": 0.35259794289358726, "y": 0.5585401980046677}, {"type": "position", "time": 4958, "x": 0.35259794289358726, "y": 0.5585401980046677}, {"type": "position", "time": 5008, "x": 0.35259794289358726, "y": 0.5585401980046677}, {"type": "position", "time": 5058, "x": 0.35259794289358726, "y": 0.5585401980046677}, {"type": "position", "time": 5108, "x": 0.35259794289358726, "y": 0.5585401980046677}, {"type": "position", "time": 5158, "x": 0.35259794289358726, "y": 0.5585401980046677}, {"type": "position", "time": 5208, "x": 0.35259794289358726, "y": 0.5585401980046677}, {"type": "position", "time": 5258, "x": 0.35259794289358726, "y": 0.5585401980046677}, {"type": "position", "time": 5308, "x": 0.35259794289358726, "y": 0.5585401980046677}, {"type": "position", "time": 5358, "x": 0.35259794289358726, "y": 0.5585401980046677}, {"type": "position", "time": 5408, "x": 0.35259794289358726, "y": 0.5585401980046677}, {"type": "position", "time": 5458, "x": 0.35259794289358726, "y": 0.5585401980046677}, {"type": "position", "time": 5508, "x": 0.35259794289358726, "y": 0.5585401980046677}, {"type": "position", "time": 5558, "x": 0.35259794289358726, "y": 0.5585401980046677}, {"type": "position", "time": 5607, "x": 0.35259794289358726, "y": 0.5585401980046677}, {"type": "position", "time": 5655, "x": 0.35259794289358726, "y": 0.5585401980046677}, {"type": "position", "time": 5705, "x": 0.35259794289358726, "y": 0.5585401980046677}, {"type": "position", "time": 5755, "x": 0.35259794289358726, "y": 0.5585401980046677}, {"type": "position", "time": 5805, "x": 0.35259794289358726, "y": 0.5585401980046677}, {"type": "position", "time": 5855, "x": 0.35259794289358726, "y": 0.5585401980046677}, {"type": "position", "time": 5905, "x": 0.35259794289358726, "y": 0.5585401980046677}, {"type": "position", "time": 5955, "x": 0.35259794289358726, "y": 0.5585401980046677}, {"type": "position", "time": 6005, "x": 0.35259794289358726, "y": 0.5585401980046677}, {"type": "position", "time": 6055, "x": 0.35259794289358726, "y": 0.5585401980046677}, {"type": "position", "time": 6105, "x": 0.35259794289358726, "y": 0.5585401980046677}, {"type": "position", "time": 6155, "x": 0.35259794289358726, "y": 0.5585401980046677}, {"type": "position", "time": 6205, "x": 0.35259794289358726, "y": 0.5585401980046677}, {"type": "position", "time": 6255, "x": 0.35259794289358726, "y": 0.5585401980046677}, {"type": "position", "time": 6305, "x": 0.35259794289358726, "y": 0.5585401980046677}, {"type": "position", "time": 6355, "x": 0.35259794289358726, "y": 0.5585401980046677}, {"type": "position", "time": 6405, "x": 0.35259794289358726, "y": 0.5585401980046677}, {"type": "position", "time": 6455, "x": 0.35259794289358726, "y": 0.5585401980046677}, {"type": "position", "time": 6505, "x": 0.35259794289358726, "y": 0.5585401980046677}, {"type": "position", "time": 6555, "x": 0.35259794289358726, "y": 0.5585401980046677}, {"type": "position", "time": 6605, "x": 0.35259794289358726, "y": 0.5585401980046677}, {"type": "position", "time": 6655, "x": 0.35259794289358726, "y": 0.5585401980046677}, {"type": "position", "time": 6705, "x": 0.35259794289358726, "y": 0.5585401980046677}, {"type": "position", "time": 6755, "x": 0.35259794289358726, "y": 0.5585401980046677}, {"type": "position", "time": 6805, "x": 0.35259794289358726, "y": 0.5585401980046677}, {"type": "position", "time": 6855, "x": 0.35259794289358726, "y": 0.5585401980046677}, {"type": "position", "time": 6905, "x": 0.35259794289358726, "y": 0.5585401980046677}, {"type": "position", "time": 6955, "x": 0.35259794289358726, "y": 0.5585401980046677}, {"type": "position", "time": 7005, "x": 0.35259794289358726, "y": 0.5585401980046677}, {"type": "position", "time": 7055, "x": 0.35259794289358726, "y": 0.5585401980046677}, {"type": "position", "time": 7105, "x": 0.35259794289358726, "y": 0.5585401980046677}, {"type": "position", "time": 7155, "x": 0.35259794289358726, "y": 0.5585401980046677}, {"type": "position", "time": 7205, "x": 0.35259794289358726, "y": 0.5585401980046677}, {"type": "position", "time": 7255, "x": 0.35259794289358726, "y": 0.5585401980046677}, {"type": "position", "time": 7305, "x": 0.35259794289358726, "y": 0.5585401980046677}, {"type": "position", "time": 7355, "x": 0.35259794289358726, "y": 0.5585401980046677}, {"type": "position", "time": 7405, "x": 0.35259794289358726, "y": 0.5585401980046677}, {"type": "position", "time": 7454, "x": 0.35259794289358726, "y": 0.5585401980046677}, {"type": "position", "time": 7502, "x": 0.35259794289358726, "y": 0.5585401980046677}, {"type": "position", "time": 7552, "x": 0.35259794289358726, "y": 0.5585401980046677}, {"type": "position", "time": 7602, "x": 0.35259794289358726, "y": 0.5585401980046677}, {"type": "position", "time": 7652, "x": 0.35259794289358726, "y": 0.5585401980046677}, {"type": "position", "time": 7702, "x": 0.35259794289358726, "y": 0.5585401980046677}, {"type": "position", "time": 7752, "x": 0.35259794289358726, "y": 0.5585401980046677}, {"type": "position", "time": 7802, "x": 0.35259794289358726, "y": 0.5585401980046677}, {"type": "position", "time": 7852, "x": 0.35259794289358726, "y": 0.5585401980046677}, {"type": "position", "time": 7902, "x": 0.35259794289358726, "y": 0.5585401980046677}, {"type": "position", "time": 7952, "x": 0.35259794289358726, "y": 0.5585401980046677}, {"type": "position", "time": 8002, "x": 0.35259794289358726, "y": 0.5585401980046677}, {"type": "position", "time": 8052, "x": 0.35259794289358726, "y": 0.5585401980046677}, {"type": "position", "time": 8102, "x": 0.35259794289358726, "y": 0.5585401980046677}, {"type": "position", "time": 8152, "x": 0.35259794289358726, "y": 0.5585401980046677}, {"type": "position", "time": 8202, "x": 0.35259794289358726, "y": 0.5585401980046677}, {"type": "position", "time": 8252, "x": 0.35259794289358726, "y": 0.5585401980046677}, {"type": "position", "time": 8302, "x": 0.37010280530674405, "y": 0.5702111872167055}, {"type": "position", "time": 8352, "x": 0.44137260227459685, "y": 0.5968877339870777}, {"type": "position", "time": 8402, "x": 0.5051403153510966, "y": 0.5968877339870777}, {"type": "position", "time": 8452, "x": 0.5701583757428219, "y": 0.5918858814676329}, {"type": "position", "time": 8502, "x": 0.6151708790909395, "y": 0.5618747663509642}, {"type": "position", "time": 8552, "x": 0.6351764361345472, "y": 0.535198219580592}, {"type": "position", "time": 8602, "x": 0.6701861609608609, "y": 0.5001852519444785}, {"type": "position", "time": 8652, "x": 0.7289524847764588, "y": 0.45183401092317893}, {"type": "position", "time": 8702, "x": 0.760211167657096, "y": 0.4284920324991032}, {"type": "position", "time": 8752, "x": 0.7714642934941254, "y": 0.42015561163336196}, {"type": "position", "time": 8802, "x": 0.806474018320439, "y": 0.41181919076762064}, {"type": "position", "time": 8852, "x": 0.8077243656356644, "y": 0.41181919076762064}, {"type": "position", "time": 8902, "x": 0.8077243656356644, "y": 0.41181919076762064}, {"type": "position", "time": 8952, "x": 0.8077243656356644, "y": 0.41181919076762064}, {"type": "position", "time": 9002, "x": 0.8077243656356644, "y": 0.4535012950963272}, {"type": "position", "time": 9052, "x": 0.8139761022117918, "y": 0.45683586344262367}, {"type": "position", "time": 9102, "x": 0.8252292280488213, "y": 0.4601704317889202}, {"type": "position", "time": 9152, "x": 0.8464851324076546, "y": 0.46683956848151326}, {"type": "position", "time": 9202, "x": 0.8664906894512623, "y": 0.4735087051741063}, {"type": "position", "time": 9252, "x": 0.8727424260273897, "y": 0.4735087051741063}, {"type": "position", "time": 9302, "x": 0.8752431206578407, "y": 0.4735087051741063}, {"type": "position", "time": 9352, "x": 0.8764934679730663, "y": 0.4735087051741063}, {"type": "position", "time": 9402, "x": 0.8764934679730663, "y": 0.4735087051741063}, {"type": "position", "time": 9452, "x": 0.8764934679730663, "y": 0.4735087051741063}, {"type": "click", "time": 9503, "x": 0.8764934679730663, "y": 0.4735087051741063}, {"type": "position", "time": 9510, "x": 0.8764934679730663, "y": 0.4735087051741063}, {"type": "position", "time": 9552, "x": 0.8764934679730663, "y": 0.4735087051741063}, {"type": "position", "time": 9602, "x": 0.8764934679730663, "y": 0.4735087051741063}, {"type": "position", "time": 9652, "x": 0.8764934679730663, "y": 0.4735087051741063}, {"type": "position", "time": 9702, "x": 0.7939705451681841, "y": 0.5085216728102198}, {"type": "position", "time": 9753, "x": 0.6826896341131158, "y": 0.5385327879268885}, {"type": "position", "time": 9802, "x": 0.5951653220473317, "y": 0.5502037771389263}, {"type": "position", "time": 9852, "x": 0.5664073337971455, "y": 0.5468692087926298}, {"type": "position", "time": 9902, "x": 0.557654902590567, "y": 0.535198219580592}, {"type": "position", "time": 9952, "x": 0.557654902590567, "y": 0.5335309354074438}, {"type": "position", "time": 10002, "x": 0.557654902590567, "y": 0.5335309354074438}, {"type": "position", "time": 10052, "x": 0.557654902590567, "y": 0.5335309354074438}, {"type": "position", "time": 10102, "x": 0.5551542079601162, "y": 0.5335309354074438}, {"type": "position", "time": 10153, "x": 0.5564045552753416, "y": 0.5251945145417024}, {"type": "position", "time": 10202, "x": 0.5726590703732729, "y": 0.4751759893472546}, {"type": "position", "time": 10252, "x": 0.5789108069494003, "y": 0.4535012950963272}, {"type": "position", "time": 10302, "x": 0.5789108069494003, "y": 0.4535012950963272}, {"type": "position", "time": 10352, "x": 0.5789108069494003, "y": 0.4535012950963272}, {"type": "position", "time": 10402, "x": 0.5789108069494003, "y": 0.4535012950963272}, {"type": "position", "time": 10452, "x": 0.5789108069494003, "y": 0.4535012950963272}, {"type": "position", "time": 10500, "x": 0.5776604596341749, "y": 0.45516857926947546}, {"type": "position", "time": 10551, "x": 0.5776604596341749, "y": 0.4735087051741063}, {"type": "position", "time": 10600, "x": 0.5851625435255278, "y": 0.5018525361176268}, {"type": "position", "time": 10650, "x": 0.6251736576127433, "y": 0.541867356273185}, {"type": "position", "time": 10700, "x": 0.6776882448522138, "y": 0.5885513131213364}, {"type": "position", "time": 10751, "x": 0.7302028320916842, "y": 0.6252315649305982}, {"type": "position", "time": 10800, "x": 0.7352042213525862, "y": 0.6268988491037464}, {"type": "position", "time": 10850, "x": 0.7452069998743901, "y": 0.6235642807574499}, {"type": "position", "time": 10900, "x": 0.7452069998743901, "y": 0.6235642807574499}, {"type": "position", "time": 10950, "x": 0.7452069998743901, "y": 0.6235642807574499}, {"type": "position", "time": 11000, "x": 0.7452069998743901, "y": 0.6235642807574499}, {"type": "position", "time": 11050, "x": 0.7414559579287137, "y": 0.6235642807574499}, {"type": "position", "time": 11100, "x": 0.7414559579287137, "y": 0.6235642807574499}, {"type": "position", "time": 11151, "x": 0.7414559579287137, "y": 0.6235642807574499}, {"type": "position", "time": 11201, "x": 0.7414559579287137, "y": 0.6235642807574499}, {"type": "position", "time": 11251, "x": 0.7414559579287137, "y": 0.6235642807574499}, {"type": "position", "time": 11301, "x": 0.7414559579287137, "y": 0.6235642807574499}, {"type": "position", "time": 11351, "x": 0.7414559579287137, "y": 0.6235642807574499}, {"type": "position", "time": 11401, "x": 0.7414559579287137, "y": 0.6235642807574499}, {"type": "position", "time": 11451, "x": 0.7414559579287137, "y": 0.6235642807574499}, {"type": "position", "time": 11501, "x": 0.7414559579287137, "y": 0.6235642807574499}, {"type": "position", "time": 11551, "x": 0.7414559579287137, "y": 0.6235642807574499}, {"type": "position", "time": 11601, "x": 0.7414559579287137, "y": 0.6235642807574499}, {"type": "position", "time": 11651, "x": 0.7414559579287137, "y": 0.6235642807574499}, {"type": "position", "time": 11701, "x": 0.7414559579287137, "y": 0.6235642807574499}, {"type": "position", "time": 11751, "x": 0.7414559579287137, "y": 0.6235642807574499}, {"type": "position", "time": 11801, "x": 0.7414559579287137, "y": 0.6235642807574499}, {"type": "position", "time": 11851, "x": 0.7414559579287137, "y": 0.6235642807574499}, {"type": "position", "time": 11901, "x": 0.7414559579287137, "y": 0.6235642807574499}, {"type": "position", "time": 11951, "x": 0.7414559579287137, "y": 0.6235642807574499}, {"type": "position", "time": 12001, "x": 0.7414559579287137, "y": 0.6235642807574499}, {"type": "position", "time": 12051, "x": 0.7414559579287137, "y": 0.6235642807574499}, {"type": "position", "time": 12101, "x": 0.7414559579287137, "y": 0.6235642807574499}, {"type": "position", "time": 12150, "x": 0.7414559579287137, "y": 0.6235642807574499}, {"type": "position", "time": 12200, "x": 0.7414559579287137, "y": 0.6235642807574499}, {"type": "position", "time": 12250, "x": 0.7414559579287137, "y": 0.6235642807574499}, {"type": "position", "time": 12300, "x": 0.7414559579287137, "y": 0.6235642807574499}, {"type": "position", "time": 12350, "x": 0.7414559579287137, "y": 0.6235642807574499}, {"type": "position", "time": 12400, "x": 0.7414559579287137, "y": 0.6235642807574499}, {"type": "position", "time": 12450, "x": 0.7427063052439391, "y": 0.6235642807574499}, {"type": "position", "time": 12500, "x": 0.7427063052439391, "y": 0.6235642807574499}, {"type": "position", "time": 12550, "x": 0.7427063052439391, "y": 0.6235642807574499}, {"type": "position", "time": 12600, "x": 0.7427063052439391, "y": 0.6235642807574499}, {"type": "position", "time": 12650, "x": 0.7427063052439391, "y": 0.6235642807574499}, {"type": "position", "time": 12700, "x": 0.7427063052439391, "y": 0.6235642807574499}, {"type": "position", "time": 12750, "x": 0.7427063052439391, "y": 0.6235642807574499}, {"type": "position", "time": 12800, "x": 0.7427063052439391, "y": 0.6235642807574499}, {"type": "position", "time": 12850, "x": 0.7427063052439391, "y": 0.6235642807574499}, {"type": "position", "time": 12900, "x": 0.7427063052439391, "y": 0.6235642807574499}, {"type": "position", "time": 12950, "x": 0.757710473026645, "y": 0.5868840289481881}, {"type": "position", "time": 13000, "x": 0.757710473026645, "y": 0.5868840289481881}, {"type": "position", "time": 13050, "x": 0.757710473026645, "y": 0.5868840289481881}, {"type": "position", "time": 13100, "x": 0.757710473026645, "y": 0.5868840289481881}, {"type": "position", "time": 13150, "x": 0.757710473026645, "y": 0.5868840289481881}, {"type": "position", "time": 13200, "x": 0.757710473026645, "y": 0.5868840289481881}, {"type": "position", "time": 13250, "x": 0.757710473026645, "y": 0.5868840289481881}, {"type": "position", "time": 13300, "x": 0.7001944965262725, "y": 0.48851426273244064}, {"type": "position", "time": 13351, "x": 0.6651847716999589, "y": 0.45016672675003067}, {"type": "position", "time": 13400, "x": 0.6651847716999589, "y": 0.45016672675003067}, {"type": "position", "time": 13450, "x": 0.6651847716999589, "y": 0.45016672675003067}, {"type": "position", "time": 13500, "x": 0.6651847716999589, "y": 0.45016672675003067}, {"type": "position", "time": 13550, "x": 0.6651847716999589, "y": 0.45016672675003067}, {"type": "position", "time": 13600, "x": 0.6651847716999589, "y": 0.45016672675003067}, {"type": "position", "time": 13650, "x": 0.6651847716999589, "y": 0.45016672675003067}, {"type": "position", "time": 13700, "x": 0.6651847716999589, "y": 0.45016672675003067}, {"type": "position", "time": 13750, "x": 0.6651847716999589, "y": 0.45016672675003067}, {"type": "position", "time": 13800, "x": 0.6651847716999589, "y": 0.45183401092317893}, {"type": "position", "time": 13850, "x": 0.6651847716999589, "y": 0.45183401092317893}, {"type": "position", "time": 13899, "x": 0.6651847716999589, "y": 0.45183401092317893}, {"type": "position", "time": 13947, "x": 0.6651847716999589, "y": 0.45183401092317893}, {"type": "position", "time": 13997, "x": 0.6651847716999589, "y": 0.45183401092317893}, {"type": "position", "time": 14047, "x": 0.6651847716999589, "y": 0.45183401092317893}, {"type": "position", "time": 14097, "x": 0.6651847716999589, "y": 0.45183401092317893}, {"type": "position", "time": 14147, "x": 0.6651847716999589, "y": 0.45183401092317893}, {"type": "position", "time": 14197, "x": 0.6651847716999589, "y": 0.45183401092317893}, {"type": "position", "time": 14247, "x": 0.6651847716999589, "y": 0.45183401092317893}, {"type": "position", "time": 14297, "x": 0.6651847716999589, "y": 0.45183401092317893}, {"type": "position", "time": 14347, "x": 0.6651847716999589, "y": 0.45183401092317893}, {"type": "position", "time": 14397, "x": 0.6651847716999589, "y": 0.45183401092317893}, {"type": "position", "time": 14447, "x": 0.6651847716999589, "y": 0.45183401092317893}, {"type": "position", "time": 14497, "x": 0.6651847716999589, "y": 0.45183401092317893}, {"type": "position", "time": 14547, "x": 0.6651847716999589, "y": 0.45183401092317893}, {"type": "position", "time": 14597, "x": 0.6651847716999589, "y": 0.45183401092317893}, {"type": "position", "time": 14647, "x": 0.6651847716999589, "y": 0.45183401092317893}, {"type": "position", "time": 14697, "x": 0.6651847716999589, "y": 0.45183401092317893}, {"type": "position", "time": 14747, "x": 0.6651847716999589, "y": 0.45183401092317893}, {"type": "position", "time": 14797, "x": 0.6651847716999589, "y": 0.45183401092317893}, {"type": "position", "time": 14847, "x": 0.6651847716999589, "y": 0.45183401092317893}, {"type": "position", "time": 14897, "x": 0.6651847716999589, "y": 0.45183401092317893}, {"type": "position", "time": 14947, "x": 0.6651847716999589, "y": 0.45183401092317893}, {"type": "position", "time": 14997, "x": 0.6651847716999589, "y": 0.45183401092317893}, {"type": "position", "time": 15047, "x": 0.6651847716999589, "y": 0.45183401092317893}, {"type": "position", "time": 15097, "x": 0.6651847716999589, "y": 0.45183401092317893}, {"type": "position", "time": 15147, "x": 0.6651847716999589, "y": 0.45183401092317893}, {"type": "position", "time": 15197, "x": 0.6651847716999589, "y": 0.45183401092317893}, {"type": "position", "time": 15247, "x": 0.6651847716999589, "y": 0.45183401092317893}, {"type": "position", "time": 15297, "x": 0.6651847716999589, "y": 0.45183401092317893}, {"type": "position", "time": 15347, "x": 0.6651847716999589, "y": 0.45183401092317893}, {"type": "position", "time": 15397, "x": 0.6651847716999589, "y": 0.45183401092317893}, {"type": "position", "time": 15447, "x": 0.6651847716999589, "y": 0.45183401092317893}, {"type": "position", "time": 15497, "x": 0.6651847716999589, "y": 0.45183401092317893}, {"type": "position", "time": 15547, "x": 0.6651847716999589, "y": 0.45183401092317893}, {"type": "position", "time": 15597, "x": 0.6651847716999589, "y": 0.45183401092317893}, {"type": "position", "time": 15647, "x": 0.6651847716999589, "y": 0.45183401092317893}, {"type": "position", "time": 15697, "x": 0.6651847716999589, "y": 0.45183401092317893}, {"type": "position", "time": 15747, "x": 0.6651847716999589, "y": 0.45183401092317893}, {"type": "position", "time": 15797, "x": 0.6651847716999589, "y": 0.45183401092317893}, {"type": "position", "time": 15847, "x": 0.6651847716999589, "y": 0.45183401092317893}, {"type": "position", "time": 15897, "x": 0.6651847716999589, "y": 0.45183401092317893}, {"type": "position", "time": 15947, "x": 0.6651847716999589, "y": 0.45183401092317893}, {"type": "position", "time": 15997, "x": 0.6651847716999589, "y": 0.45183401092317893}, {"type": "position", "time": 16047, "x": 0.6651847716999589, "y": 0.45183401092317893}, {"type": "position", "time": 16097, "x": 0.6651847716999589, "y": 0.45183401092317893}, {"type": "position", "time": 16147, "x": 0.6651847716999589, "y": 0.45183401092317893}, {"type": "position", "time": 16197, "x": 0.6651847716999589, "y": 0.45183401092317893}, {"type": "position", "time": 16247, "x": 0.6651847716999589, "y": 0.45183401092317893}, {"type": "position", "time": 16297, "x": 0.6651847716999589, "y": 0.45183401092317893}, {"type": "position", "time": 16347, "x": 0.6651847716999589, "y": 0.45183401092317893}, {"type": "position", "time": 16397, "x": 0.6651847716999589, "y": 0.45183401092317893}, {"type": "position", "time": 16447, "x": 0.6651847716999589, "y": 0.45183401092317893}, {"type": "position", "time": 16497, "x": 0.6651847716999589, "y": 0.45183401092317893}, {"type": "position", "time": 16545, "x": 0.6651847716999589, "y": 0.45183401092317893}, {"type": "position", "time": 16595, "x": 0.6651847716999589, "y": 0.45516857926947546}, {"type": "position", "time": 16645, "x": 0.6639344243847335, "y": 0.45516857926947546}, {"type": "position", "time": 16695, "x": 0.6564323404933805, "y": 0.45183401092317893}, {"type": "position", "time": 16745, "x": 0.6564323404933805, "y": 0.45183401092317893}, {"type": "position", "time": 16795, "x": 0.6564323404933805, "y": 0.45183401092317893}, {"type": "position", "time": 16845, "x": 0.6564323404933805, "y": 0.45183401092317893}, {"type": "position", "time": 16895, "x": 0.6564323404933805, "y": 0.45183401092317893}, {"type": "position", "time": 16945, "x": 0.6564323404933805, "y": 0.45183401092317893}, {"type": "position", "time": 16995, "x": 0.6564323404933805, "y": 0.45183401092317893}, {"type": "position", "time": 17045, "x": 0.6564323404933805, "y": 0.45183401092317893}, {"type": "position", "time": 17095, "x": 0.6564323404933805, "y": 0.45183401092317893}, {"type": "position", "time": 17145, "x": 0.6389274780802238, "y": 0.4601704317889202}, {"type": "position", "time": 17195, "x": 0.6376771307649982, "y": 0.5018525361176268}, {"type": "position", "time": 17245, "x": 0.6376771307649982, "y": 0.5135235253296646}, {"type": "position", "time": 17295, "x": 0.6214226156670669, "y": 0.5251945145417024}, {"type": "position", "time": 17345, "x": 0.6214226156670669, "y": 0.5251945145417024}, {"type": "position", "time": 17395, "x": 0.6214226156670669, "y": 0.5251945145417024}, {"type": "position", "time": 17445, "x": 0.6214226156670669, "y": 0.5251945145417024}, {"type": "position", "time": 17495, "x": 0.6214226156670669, "y": 0.5268617987148507}, {"type": "position", "time": 17545, "x": 0.6226729629822924, "y": 0.5268617987148507}, {"type": "position", "time": 17595, "x": 0.6226729629822924, "y": 0.5268617987148507}, {"type": "position", "time": 17645, "x": 0.6226729629822924, "y": 0.5268617987148507}, {"type": "position", "time": 17695, "x": 0.6226729629822924, "y": 0.5268617987148507}, {"type": "position", "time": 17745, "x": 0.6226729629822924, "y": 0.5268617987148507}, {"type": "position", "time": 17795, "x": 0.6226729629822924, "y": 0.5268617987148507}, {"type": "position", "time": 17845, "x": 0.6226729629822924, "y": 0.5268617987148507}, {"type": "position", "time": 17895, "x": 0.6226729629822924, "y": 0.5268617987148507}, {"type": "position", "time": 17945, "x": 0.6226729629822924, "y": 0.5268617987148507}, {"type": "position", "time": 17995, "x": 0.6226729629822924, "y": 0.5268617987148507}, {"type": "position", "time": 18045, "x": 0.6226729629822924, "y": 0.5268617987148507}, {"type": "position", "time": 18095, "x": 0.6226729629822924, "y": 0.5268617987148507}, {"type": "position", "time": 18145, "x": 0.6226729629822924, "y": 0.5268617987148507}, {"type": "position", "time": 18195, "x": 0.6226729629822924, "y": 0.5268617987148507}, {"type": "position", "time": 18245, "x": 0.6226729629822924, "y": 0.5268617987148507}, {"type": "position", "time": 18295, "x": 0.6226729629822924, "y": 0.5268617987148507}, {"type": "position", "time": 18345, "x": 0.6226729629822924, "y": 0.5268617987148507}, {"type": "position", "time": 18395, "x": 0.6226729629822924, "y": 0.5268617987148507}, {"type": "position", "time": 18445, "x": 0.6226729629822924, "y": 0.5268617987148507}, {"type": "position", "time": 18495, "x": 0.6226729629822924, "y": 0.5268617987148507}, {"type": "position", "time": 18544, "x": 0.6226729629822924, "y": 0.5268617987148507}, {"type": "position", "time": 18594, "x": 0.6226729629822924, "y": 0.5268617987148507}, {"type": "position", "time": 18644, "x": 0.6226729629822924, "y": 0.5268617987148507}, {"type": "position", "time": 18694, "x": 0.6226729629822924, "y": 0.5268617987148507}, {"type": "position", "time": 18744, "x": 0.6226729629822924, "y": 0.5268617987148507}, {"type": "position", "time": 18794, "x": 0.6226729629822924, "y": 0.5268617987148507}, {"type": "position", "time": 18844, "x": 0.6226729629822924, "y": 0.5268617987148507}, {"type": "position", "time": 18894, "x": 0.6226729629822924, "y": 0.5268617987148507}, {"type": "position", "time": 18944, "x": 0.6226729629822924, "y": 0.5268617987148507}, {"type": "position", "time": 18994, "x": 0.6451792146563512, "y": 0.5402000721000367}, {"type": "position", "time": 19044, "x": 0.6514309512324786, "y": 0.5502037771389263}, {"type": "position", "time": 19094, "x": 0.6876910233740177, "y": 0.5802148922555951}, {"type": "position", "time": 19144, "x": 0.6951931072653706, "y": 0.5835494606018916}, {"type": "position", "time": 19194, "x": 0.6951931072653706, "y": 0.5835494606018916}, {"type": "position", "time": 19244, "x": 0.6951931072653706, "y": 0.5835494606018916}, {"type": "position", "time": 19294, "x": 0.6951931072653706, "y": 0.5835494606018916}, {"type": "position", "time": 19345, "x": 0.6951931072653706, "y": 0.5952204498139294}, {"type": "position", "time": 19394, "x": 0.6926924126349197, "y": 0.5952204498139294}, {"type": "position", "time": 19444, "x": 0.6926924126349197, "y": 0.5952204498139294}, {"type": "position", "time": 19494, "x": 0.6926924126349197, "y": 0.5952204498139294}, {"type": "position", "time": 19544, "x": 0.6926924126349197, "y": 0.5952204498139294}, {"type": "position", "time": 19594, "x": 0.6926924126349197, "y": 0.5952204498139294}, {"type": "position", "time": 19644, "x": 0.6926924126349197, "y": 0.5952204498139294}, {"type": "position", "time": 19694, "x": 0.6926924126349197, "y": 0.5952204498139294}, {"type": "position", "time": 19744, "x": 0.6926924126349197, "y": 0.5952204498139294}, {"type": "position", "time": 19794, "x": 0.6926924126349197, "y": 0.5952204498139294}, {"type": "position", "time": 19844, "x": 0.6926924126349197, "y": 0.5952204498139294}, {"type": "position", "time": 19894, "x": 0.6926924126349197, "y": 0.5952204498139294}, {"type": "position", "time": 19944, "x": 0.6926924126349197, "y": 0.5952204498139294}, {"type": "position", "time": 19994, "x": 0.6926924126349197, "y": 0.5952204498139294}, {"type": "position", "time": 20044, "x": 0.6926924126349197, "y": 0.5952204498139294}, {"type": "position", "time": 20094, "x": 0.6926924126349197, "y": 0.5952204498139294}, {"type": "position", "time": 20144, "x": 0.6926924126349197, "y": 0.5952204498139294}, {"type": "position", "time": 20194, "x": 0.6926924126349197, "y": 0.5952204498139294}, {"type": "position", "time": 20244, "x": 0.6926924126349197, "y": 0.5952204498139294}, {"type": "position", "time": 20294, "x": 0.6926924126349197, "y": 0.5952204498139294}, {"type": "position", "time": 20344, "x": 0.6926924126349197, "y": 0.5952204498139294}, {"type": "position", "time": 20394, "x": 0.6926924126349197, "y": 0.5952204498139294}, {"type": "position", "time": 20443, "x": 0.6926924126349197, "y": 0.5952204498139294}, {"type": "position", "time": 20493, "x": 0.6926924126349197, "y": 0.5952204498139294}, {"type": "position", "time": 20543, "x": 0.6926924126349197, "y": 0.5952204498139294}, {"type": "position", "time": 20593, "x": 0.6926924126349197, "y": 0.5952204498139294}, {"type": "position", "time": 20643, "x": 0.6926924126349197, "y": 0.5952204498139294}, {"type": "position", "time": 20693, "x": 0.6926924126349197, "y": 0.5952204498139294}, {"type": "position", "time": 20743, "x": 0.6926924126349197, "y": 0.5952204498139294}, {"type": "position", "time": 20793, "x": 0.6926924126349197, "y": 0.5952204498139294}, {"type": "position", "time": 20843, "x": 0.6926924126349197, "y": 0.5952204498139294}, {"type": "position", "time": 20893, "x": 0.6926924126349197, "y": 0.5952204498139294}, {"type": "position", "time": 20943, "x": 0.6926924126349197, "y": 0.5952204498139294}, {"type": "position", "time": 20993, "x": 0.6926924126349197, "y": 0.5952204498139294}, {"type": "position", "time": 21043, "x": 0.6926924126349197, "y": 0.5952204498139294}, {"type": "position", "time": 21093, "x": 0.6926924126349197, "y": 0.5952204498139294}, {"type": "position", "time": 21143, "x": 0.6926924126349197, "y": 0.5952204498139294}, {"type": "position", "time": 21193, "x": 0.6926924126349197, "y": 0.5952204498139294}, {"type": "position", "time": 21243, "x": 0.6939427599501451, "y": 0.5952204498139294}, {"type": "position", "time": 21293, "x": 0.7164490116242039, "y": 0.6018895865065225}, {"type": "position", "time": 21344, "x": 0.7939705451681841, "y": 0.6018895865065225}, {"type": "position", "time": 21393, "x": 0.852736868983782, "y": 0.5852167447750398}, {"type": "position", "time": 21443, "x": 0.8702417313969387, "y": 0.5802148922555951}, {"type": "position", "time": 21493, "x": 0.8702417313969387, "y": 0.5802148922555951}, {"type": "position", "time": 21543, "x": 0.8702417313969387, "y": 0.5802148922555951}, {"type": "position", "time": 21593, "x": 0.8714920787121643, "y": 0.5885513131213364}, {"type": "position", "time": 21643, "x": 0.8752431206578407, "y": 0.5968877339870777}, {"type": "position", "time": 21693, "x": 0.8752431206578407, "y": 0.5968877339870777}, {"type": "position", "time": 21743, "x": 0.8752431206578407, "y": 0.5968877339870777}, {"type": "position", "time": 21793, "x": 0.8752431206578407, "y": 0.5968877339870777}, {"type": "position", "time": 21843, "x": 0.8752431206578407, "y": 0.5968877339870777}, {"type": "position", "time": 21893, "x": 0.8752431206578407, "y": 0.5968877339870777}, {"type": "position", "time": 21943, "x": 0.8752431206578407, "y": 0.5968877339870777}, {"type": "position", "time": 21993, "x": 0.8752431206578407, "y": 0.5968877339870777}, {"type": "position", "time": 22043, "x": 0.8752431206578407, "y": 0.5968877339870777}, {"type": "position", "time": 22093, "x": 0.8752431206578407, "y": 0.5968877339870777}, {"type": "position", "time": 22143, "x": 0.8752431206578407, "y": 0.5968877339870777}, {"type": "position", "time": 22193, "x": 0.8752431206578407, "y": 0.5968877339870777}, {"type": "position", "time": 22243, "x": 0.8752431206578407, "y": 0.5968877339870777}, {"type": "position", "time": 22293, "x": 0.8752431206578407, "y": 0.5968877339870777}, {"type": "position", "time": 22343, "x": 0.8752431206578407, "y": 0.5968877339870777}, {"type": "position", "time": 22393, "x": 0.8702417313969387, "y": 0.605224154852819}, {"type": "position", "time": 22443, "x": 0.8602389528751349, "y": 0.6085587231991155}, {"type": "position", "time": 22493, "x": 0.8514865216685564, "y": 0.611893291545412}, {"type": "position", "time": 22543, "x": 0.8514865216685564, "y": 0.611893291545412}, {"type": "position", "time": 22593, "x": 0.8627396475055858, "y": 0.611893291545412}, {"type": "position", "time": 22643, "x": 0.9702695166149777, "y": 0.611893291545412}, {"type": "position", "time": 22693, "x": 1.1140594578659087, "y": 0.5952204498139294}, {"type": "position", "time": 22743, "x": 1.184078907518536, "y": 0.5802148922555951}, {"type": "position", "time": 22793, "x": 1.2003334226164672, "y": 0.5768803239092986}, {"type": "position", "time": 22843, "x": 1.2153375903991732, "y": 0.5702111872167055}, {"type": "position", "time": 22893, "x": 1.2290914108666535, "y": 0.5635420505241124}, {"type": "position", "time": 22943, "x": 1.2290914108666535, "y": 0.5635420505241124}, {"type": "position", "time": 22993, "x": 1.2290914108666535, "y": 0.5635420505241124}, {"type": "position", "time": 23043, "x": 1.2140872430839476, "y": 0.5568729138315194}, {"type": "position", "time": 23093, "x": 1.2078355065078201, "y": 0.5568729138315194}, {"type": "position", "time": 23143, "x": 1.2053348118773692, "y": 0.5568729138315194}, {"type": "position", "time": 23193, "x": 1.2053348118773692, "y": 0.5568729138315194}, {"type": "position", "time": 23243, "x": 1.2053348118773692, "y": 0.5568729138315194}, {"type": "position", "time": 23293, "x": 1.2028341172469184, "y": 0.5568729138315194}, {"type": "position", "time": 23343, "x": 1.2028341172469184, "y": 0.5568729138315194}, {"type": "position", "time": 23393, "x": 1.2028341172469184, "y": 0.5568729138315194}, {"type": "slider", "time": 23405, "value": 1}, {"type": "position", "time": 23443, "x": 1.2028341172469184, "y": 0.5568729138315194}, {"type": "position", "time": 23493, "x": 1.2028341172469184, "y": 0.5568729138315194}, {"type": "click", "time": 23504, "x": 1.2028341172469184, "y": 0.5568729138315194}, {"type": "position", "time": 23543, "x": 1.2028341172469184, "y": 0.5568729138315194}, {"type": "position", "time": 23592, "x": 1.2028341172469184, "y": 0.5568729138315194}, {"type": "position", "time": 23642, "x": 1.2028341172469184, "y": 0.5568729138315194}, {"type": "position", "time": 23692, "x": 1.2028341172469184, "y": 0.5568729138315194}, {"type": "position", "time": 23742, "x": 1.1953320333555653, "y": 0.5718784713898537}, {"type": "position", "time": 23792, "x": 1.1940816860403398, "y": 0.5752130397361502}, {"type": "position", "time": 23841, "x": 1.171575434366281, "y": 0.6002223023333741}, {"type": "position", "time": 23892, "x": 1.115309805181134, "y": 0.6452389750083772}, {"type": "position", "time": 23943, "x": 1.0390386189523795, "y": 0.6835865109907873}, {"type": "position", "time": 23992, "x": 0.9927757682890365, "y": 0.6902556476833803}, {"type": "position", "time": 24041, "x": 0.9565156961474973, "y": 0.6969247843759734}, {"type": "position", "time": 24091, "x": 0.9340094444734386, "y": 0.7019266368954181}, {"type": "position", "time": 24142, "x": 0.9290080552125367, "y": 0.7019266368954181}, {"type": "position", "time": 24191, "x": 0.9202556240059583, "y": 0.6969247843759734}, {"type": "position", "time": 24241, "x": 0.9140038874298309, "y": 0.6952575002028251}, {"type": "position", "time": 24291, "x": 0.9127535401146053, "y": 0.6902556476833803}, {"type": "position", "time": 24341, "x": 0.9102528454841543, "y": 0.6835865109907873}, {"type": "position", "time": 24391, "x": 0.9102528454841543, "y": 0.6769173742981942}, {"type": "position", "time": 24441, "x": 0.9102528454841543, "y": 0.6702482376056011}, {"type": "position", "time": 24491, "x": 0.9102528454841543, "y": 0.6635791009130081}, {"type": "position", "time": 24541, "x": 0.9102528454841543, "y": 0.6602445325667116}, {"type": "position", "time": 24591, "x": 0.9102528454841543, "y": 0.6602445325667116}, {"type": "position", "time": 24641, "x": 0.9102528454841543, "y": 0.6602445325667116}, {"type": "position", "time": 24691, "x": 0.9102528454841543, "y": 0.6602445325667116}, {"type": "position", "time": 24741, "x": 0.9102528454841543, "y": 0.6602445325667116}, {"type": "position", "time": 24791, "x": 0.9102528454841543, "y": 0.6602445325667116}, {"type": "position", "time": 24841, "x": 0.9102528454841543, "y": 0.6602445325667116}, {"type": "position", "time": 24891, "x": 0.9102528454841543, "y": 0.6602445325667116}, {"type": "position", "time": 24941, "x": 0.9102528454841543, "y": 0.6602445325667116}, {"type": "position", "time": 24991, "x": 0.9102528454841543, "y": 0.6602445325667116}, {"type": "position", "time": 25041, "x": 0.9102528454841543, "y": 0.6602445325667116}, {"type": "position", "time": 25091, "x": 0.9102528454841543, "y": 0.6602445325667116}, {"type": "position", "time": 25139, "x": 0.9102528454841543, "y": 0.6602445325667116}, {"type": "position", "time": 25188, "x": 0.9102528454841543, "y": 0.6602445325667116}, {"type": "position", "time": 25238, "x": 0.9102528454841543, "y": 0.6602445325667116}, {"type": "position", "time": 25288, "x": 0.9102528454841543, "y": 0.6602445325667116}, {"type": "position", "time": 25338, "x": 0.9102528454841543, "y": 0.6602445325667116}, {"type": "position", "time": 25388, "x": 0.9102528454841543, "y": 0.6602445325667116}, {"type": "position", "time": 25438, "x": 0.9102528454841543, "y": 0.6602445325667116}, {"type": "position", "time": 25488, "x": 0.9102528454841543, "y": 0.6602445325667116}, {"type": "position", "time": 25538, "x": 0.9102528454841543, "y": 0.6602445325667116}, {"type": "position", "time": 25588, "x": 0.9102528454841543, "y": 0.6602445325667116}, {"type": "position", "time": 25638, "x": 0.9102528454841543, "y": 0.6602445325667116}, {"type": "position", "time": 25688, "x": 0.9102528454841543, "y": 0.6602445325667116}, {"type": "position", "time": 25738, "x": 0.9102528454841543, "y": 0.6602445325667116}, {"type": "position", "time": 25788, "x": 0.9102528454841543, "y": 0.6602445325667116}, {"type": "position", "time": 25838, "x": 0.9102528454841543, "y": 0.6602445325667116}, {"type": "position", "time": 25888, "x": 0.9102528454841543, "y": 0.6602445325667116}, {"type": "position", "time": 25938, "x": 0.9102528454841543, "y": 0.6602445325667116}, {"type": "position", "time": 25988, "x": 0.9102528454841543, "y": 0.6602445325667116}, {"type": "position", "time": 26038, "x": 0.9102528454841543, "y": 0.6602445325667116}, {"type": "position", "time": 26088, "x": 0.9102528454841543, "y": 0.6602445325667116}, {"type": "position", "time": 26138, "x": 0.9102528454841543, "y": 0.6602445325667116}, {"type": "position", "time": 26188, "x": 0.9102528454841543, "y": 0.6602445325667116}, {"type": "position", "time": 26238, "x": 0.9102528454841543, "y": 0.6602445325667116}, {"type": "position", "time": 26288, "x": 0.9102528454841543, "y": 0.6602445325667116}, {"type": "position", "time": 26338, "x": 0.9102528454841543, "y": 0.6602445325667116}, {"type": "position", "time": 26388, "x": 0.9102528454841543, "y": 0.6602445325667116}, {"type": "position", "time": 26438, "x": 0.9102528454841543, "y": 0.6602445325667116}, {"type": "position", "time": 26488, "x": 0.9102528454841543, "y": 0.6602445325667116}, {"type": "position", "time": 26538, "x": 0.9102528454841543, "y": 0.6602445325667116}, {"type": "position", "time": 26588, "x": 0.9102528454841543, "y": 0.6602445325667116}, {"type": "position", "time": 26638, "x": 0.9102528454841543, "y": 0.6602445325667116}, {"type": "position", "time": 26688, "x": 0.9102528454841543, "y": 0.6602445325667116}, {"type": "position", "time": 26738, "x": 0.9102528454841543, "y": 0.6602445325667116}, {"type": "position", "time": 26788, "x": 0.9102528454841543, "y": 0.6602445325667116}, {"type": "position", "time": 26838, "x": 0.9102528454841543, "y": 0.6602445325667116}, {"type": "position", "time": 26888, "x": 0.9102528454841543, "y": 0.6602445325667116}, {"type": "position", "time": 26938, "x": 0.9102528454841543, "y": 0.6602445325667116}, {"type": "position", "time": 26987, "x": 0.9102528454841543, "y": 0.6602445325667116}, {"type": "position", "time": 27035, "x": 0.9102528454841543, "y": 0.6602445325667116}, {"type": "position", "time": 27085, "x": 0.9102528454841543, "y": 0.6602445325667116}, {"type": "position", "time": 27135, "x": 0.9102528454841543, "y": 0.6602445325667116}, {"type": "position", "time": 27185, "x": 0.9102528454841543, "y": 0.6602445325667116}, {"type": "position", "time": 27235, "x": 0.9102528454841543, "y": 0.6602445325667116}, {"type": "position", "time": 27285, "x": 0.9102528454841543, "y": 0.6602445325667116}, {"type": "position", "time": 27335, "x": 0.9102528454841543, "y": 0.6602445325667116}, {"type": "position", "time": 27385, "x": 0.9102528454841543, "y": 0.6602445325667116}, {"type": "position", "time": 27435, "x": 0.9102528454841543, "y": 0.6602445325667116}, {"type": "position", "time": 27485, "x": 0.9102528454841543, "y": 0.6602445325667116}, {"type": "position", "time": 27535, "x": 0.9102528454841543, "y": 0.6602445325667116}, {"type": "position", "time": 27585, "x": 0.9102528454841543, "y": 0.6602445325667116}, {"type": "position", "time": 27635, "x": 0.9102528454841543, "y": 0.6602445325667116}, {"type": "position", "time": 27685, "x": 0.9102528454841543, "y": 0.6602445325667116}, {"type": "position", "time": 27735, "x": 0.9102528454841543, "y": 0.6602445325667116}, {"type": "position", "time": 27785, "x": 0.9102528454841543, "y": 0.6602445325667116}, {"type": "position", "time": 27835, "x": 0.9102528454841543, "y": 0.6602445325667116}, {"type": "position", "time": 27885, "x": 0.9102528454841543, "y": 0.6602445325667116}, {"type": "position", "time": 27935, "x": 0.9102528454841543, "y": 0.6602445325667116}, {"type": "position", "time": 27985, "x": 0.9102528454841543, "y": 0.6602445325667116}, {"type": "position", "time": 28035, "x": 0.9102528454841543, "y": 0.6602445325667116}, {"type": "position", "time": 28085, "x": 0.9102528454841543, "y": 0.6602445325667116}, {"type": "position", "time": 28135, "x": 0.9102528454841543, "y": 0.6602445325667116}, {"type": "position", "time": 28185, "x": 0.9102528454841543, "y": 0.6602445325667116}, {"type": "position", "time": 28235, "x": 0.9102528454841543, "y": 0.6602445325667116}, {"type": "position", "time": 28285, "x": 0.9102528454841543, "y": 0.6602445325667116}, {"type": "position", "time": 28335, "x": 0.9102528454841543, "y": 0.6602445325667116}, {"type": "position", "time": 28385, "x": 0.9102528454841543, "y": 0.6602445325667116}, {"type": "position", "time": 28435, "x": 0.9102528454841543, "y": 0.6602445325667116}, {"type": "position", "time": 28485, "x": 0.9102528454841543, "y": 0.6602445325667116}, {"type": "click", "time": 28500, "x": 0.9102528454841543, "y": 0.6602445325667116}, {"type": "position", "time": 28535, "x": 0.9102528454841543, "y": 0.6602445325667116}, {"type": "position", "time": 28585, "x": 0.9102528454841543, "y": 0.6602445325667116}, {"type": "position", "time": 28636, "x": 0.9102528454841543, "y": 0.6602445325667116}, {"type": "position", "time": 28686, "x": 0.9102528454841543, "y": 0.6602445325667116}, {"type": "position", "time": 28736, "x": 0.9102528454841543, "y": 0.6602445325667116}, {"type": "position", "time": 28786, "x": 0.9102528454841543, "y": 0.6602445325667116}, {"type": "position", "time": 28836, "x": 0.9102528454841543, "y": 0.6602445325667116}, {"type": "position", "time": 28886, "x": 0.9102528454841543, "y": 0.6602445325667116}, {"type": "position", "time": 28936, "x": 0.9102528454841543, "y": 0.6602445325667116}, {"type": "position", "time": 28986, "x": 0.9102528454841543, "y": 0.6602445325667116}, {"type": "position", "time": 29036, "x": 0.9102528454841543, "y": 0.6602445325667116}, {"type": "position", "time": 29086, "x": 0.9102528454841543, "y": 0.6602445325667116}, {"type": "position", "time": 29136, "x": 0.9102528454841543, "y": 0.6602445325667116}, {"type": "position", "time": 29186, "x": 0.9102528454841543, "y": 0.6602445325667116}, {"type": "position", "time": 29236, "x": 0.9102528454841543, "y": 0.6602445325667116}, {"type": "position", "time": 29286, "x": 0.9102528454841543, "y": 0.6602445325667116}, {"type": "position", "time": 29336, "x": 0.9102528454841543, "y": 0.6602445325667116}, {"type": "position", "time": 29386, "x": 0.9102528454841543, "y": 0.6602445325667116}, {"type": "position", "time": 29436, "x": 0.9102528454841543, "y": 0.6602445325667116}, {"type": "position", "time": 29486, "x": 0.9102528454841543, "y": 0.6602445325667116}, {"type": "position", "time": 29536, "x": 0.9102528454841543, "y": 0.6602445325667116}, {"type": "position", "time": 29585, "x": 0.9102528454841543, "y": 0.6602445325667116}, {"type": "position", "time": 29635, "x": 0.9102528454841543, "y": 0.6602445325667116}, {"type": "position", "time": 29685, "x": 0.8889969411253211, "y": 0.643571690835229}, {"type": "position", "time": 29735, "x": 0.8852458991796446, "y": 0.6385698383157842}, {"type": "position", "time": 29785, "x": 0.8852458991796446, "y": 0.6385698383157842}, {"type": "position", "time": 29835, "x": 0.8852458991796446, "y": 0.6385698383157842}, {"type": "position", "time": 29885, "x": 0.8852458991796446, "y": 0.6385698383157842}, {"type": "position", "time": 29936, "x": 0.8852458991796446, "y": 0.6285661332768946}, {"type": "position", "time": 29985, "x": 0.8852458991796446, "y": 0.6285661332768946}, {"type": "position", "time": 30035, "x": 0.8852458991796446, "y": 0.6285661332768946}, {"type": "position", "time": 30085, "x": 0.8852458991796446, "y": 0.6285661332768946}, {"type": "position", "time": 30135, "x": 0.8852458991796446, "y": 0.6285661332768946}, {"type": "position", "time": 30185, "x": 0.8852458991796446, "y": 0.6285661332768946}, {"type": "position", "time": 30235, "x": 0.8852458991796446, "y": 0.6285661332768946}, {"type": "position", "time": 30285, "x": 0.8852458991796446, "y": 0.6285661332768946}, {"type": "position", "time": 30335, "x": 0.8852458991796446, "y": 0.6285661332768946}, {"type": "position", "time": 30385, "x": 0.8852458991796446, "y": 0.6285661332768946}, {"type": "position", "time": 30435, "x": 0.8852458991796446, "y": 0.6285661332768946}, {"type": "position", "time": 30485, "x": 0.8852458991796446, "y": 0.6285661332768946}, {"type": "position", "time": 30535, "x": 0.8852458991796446, "y": 0.6285661332768946}, {"type": "position", "time": 30585, "x": 0.8852458991796446, "y": 0.6285661332768946}, {"type": "position", "time": 30635, "x": 0.8852458991796446, "y": 0.6285661332768946}, {"type": "position", "time": 30685, "x": 0.8852458991796446, "y": 0.6285661332768946}, {"type": "position", "time": 30735, "x": 0.8852458991796446, "y": 0.6285661332768946}, {"type": "position", "time": 30785, "x": 0.8852458991796446, "y": 0.6285661332768946}, {"type": "position", "time": 30835, "x": 0.8852458991796446, "y": 0.6285661332768946}, {"type": "position", "time": 30885, "x": 0.8852458991796446, "y": 0.6285661332768946}, {"type": "position", "time": 30935, "x": 0.8852458991796446, "y": 0.6285661332768946}, {"type": "position", "time": 30985, "x": 0.8852458991796446, "y": 0.6285661332768946}, {"type": "position", "time": 31035, "x": 0.8852458991796446, "y": 0.6285661332768946}, {"type": "position", "time": 31085, "x": 0.8852458991796446, "y": 0.6285661332768946}, {"type": "position", "time": 31135, "x": 0.8852458991796446, "y": 0.6285661332768946}, {"type": "position", "time": 31185, "x": 0.8852458991796446, "y": 0.6285661332768946}, {"type": "position", "time": 31235, "x": 0.8852458991796446, "y": 0.6285661332768946}, {"type": "position", "time": 31285, "x": 0.8852458991796446, "y": 0.6285661332768946}, {"type": "position", "time": 31335, "x": 0.8852458991796446, "y": 0.6285661332768946}, {"type": "position", "time": 31385, "x": 0.8852458991796446, "y": 0.6285661332768946}, {"type": "position", "time": 31435, "x": 0.8852458991796446, "y": 0.6285661332768946}, {"type": "position", "time": 31484, "x": 0.8852458991796446, "y": 0.6285661332768946}, {"type": "position", "time": 31534, "x": 0.8852458991796446, "y": 0.6285661332768946}, {"type": "position", "time": 31584, "x": 0.8852458991796446, "y": 0.6285661332768946}, {"type": "position", "time": 31634, "x": 0.8852458991796446, "y": 0.6285661332768946}, {"type": "position", "time": 31684, "x": 0.8852458991796446, "y": 0.611893291545412}, {"type": "position", "time": 31735, "x": 0.9040011089080269, "y": 0.5785476080824468}, {"type": "position", "time": 31784, "x": 0.9102528454841543, "y": 0.5602074821778159}, {"type": "position", "time": 31834, "x": 0.9140038874298309, "y": 0.5568729138315194}, {"type": "position", "time": 31884, "x": 0.9165045820602817, "y": 0.5518710613120746}, {"type": "position", "time": 31934, "x": 0.9165045820602817, "y": 0.5502037771389263}, {"type": "position", "time": 31984, "x": 0.9165045820602817, "y": 0.5502037771389263}, {"type": "position", "time": 32034, "x": 0.9177549293755073, "y": 0.5468692087926298}, {"type": "position", "time": 32084, "x": 0.9177549293755073, "y": 0.5452019246194816}, {"type": "position", "time": 32134, "x": 0.9177549293755073, "y": 0.5435346404463333}, {"type": "position", "time": 32184, "x": 0.9177549293755073, "y": 0.5435346404463333}, {"type": "position", "time": 32234, "x": 0.9177549293755073, "y": 0.5435346404463333}, {"type": "position", "time": 32284, "x": 0.9177549293755073, "y": 0.5435346404463333}, {"type": "position", "time": 32334, "x": 0.9177549293755073, "y": 0.5435346404463333}, {"type": "click", "time": 32357, "x": 0.9177549293755073, "y": 0.5435346404463333}, {"type": "position", "time": 32384, "x": 0.9177549293755073, "y": 0.5435346404463333}, {"type": "position", "time": 32434, "x": 0.9177549293755073, "y": 0.5435346404463333}, {"type": "position", "time": 32484, "x": 0.9177549293755073, "y": 0.5435346404463333}, {"type": "position", "time": 32534, "x": 0.9177549293755073, "y": 0.5435346404463333}, {"type": "position", "time": 32584, "x": 0.9177549293755073, "y": 0.5435346404463333}, {"type": "position", "time": 32634, "x": 0.9177549293755073, "y": 0.5435346404463333}, {"type": "position", "time": 32684, "x": 0.9190052766907327, "y": 0.5435346404463333}, {"type": "position", "time": 32734, "x": 0.9190052766907327, "y": 0.5435346404463333}, {"type": "position", "time": 32784, "x": 0.9190052766907327, "y": 0.5435346404463333}, {"type": "position", "time": 32834, "x": 0.9190052766907327, "y": 0.5435346404463333}, {"type": "position", "time": 32884, "x": 0.9202556240059583, "y": 0.5435346404463333}, {"type": "position", "time": 32934, "x": 0.9202556240059583, "y": 0.5435346404463333}, {"type": "position", "time": 32984, "x": 0.9202556240059583, "y": 0.5435346404463333}, {"type": "position", "time": 33034, "x": 0.9202556240059583, "y": 0.5435346404463333}, {"type": "position", "time": 33084, "x": 0.9202556240059583, "y": 0.5435346404463333}, {"type": "position", "time": 33134, "x": 0.9202556240059583, "y": 0.5435346404463333}, {"type": "position", "time": 33184, "x": 0.9202556240059583, "y": 0.5435346404463333}, {"type": "position", "time": 33234, "x": 0.9202556240059583, "y": 0.5435346404463333}, {"type": "position", "time": 33284, "x": 0.9202556240059583, "y": 0.5435346404463333}, {"type": "position", "time": 33334, "x": 0.9202556240059583, "y": 0.5435346404463333}, {"type": "position", "time": 33384, "x": 0.9202556240059583, "y": 0.5435346404463333}, {"type": "position", "time": 33432, "x": 0.9202556240059583, "y": 0.5435346404463333}, {"type": "position", "time": 33482, "x": 0.9202556240059583, "y": 0.5435346404463333}, {"type": "position", "time": 33532, "x": 0.9215059713211837, "y": 0.541867356273185}, {"type": "position", "time": 33582, "x": 0.9215059713211837, "y": 0.5385327879268885}, {"type": "position", "time": 33632, "x": 0.9215059713211837, "y": 0.535198219580592}, {"type": "position", "time": 33682, "x": 0.9215059713211837, "y": 0.5335309354074438}, {"type": "position", "time": 33732, "x": 0.9215059713211837, "y": 0.5335309354074438}, {"type": "position", "time": 33782, "x": 0.9215059713211837, "y": 0.5285290828879989}, {"type": "position", "time": 33832, "x": 0.9215059713211837, "y": 0.5268617987148507}, {"type": "position", "time": 33882, "x": 0.9215059713211837, "y": 0.5268617987148507}, {"type": "position", "time": 33932, "x": 0.9215059713211837, "y": 0.5268617987148507}, {"type": "position", "time": 33982, "x": 0.9215059713211837, "y": 0.5268617987148507}, {"type": "position", "time": 34032, "x": 0.9215059713211837, "y": 0.5268617987148507}, {"type": "position", "time": 34082, "x": 0.9215059713211837, "y": 0.5268617987148507}, {"type": "position", "time": 34132, "x": 0.9215059713211837, "y": 0.5268617987148507}, {"type": "position", "time": 34182, "x": 0.9215059713211837, "y": 0.5268617987148507}, {"type": "position", "time": 34232, "x": 0.9215059713211837, "y": 0.5268617987148507}, {"type": "position", "time": 34282, "x": 0.9215059713211837, "y": 0.5268617987148507}, {"type": "position", "time": 34332, "x": 0.9215059713211837, "y": 0.5268617987148507}, {"type": "position", "time": 34382, "x": 0.9215059713211837, "y": 0.5268617987148507}, {"type": "position", "time": 34432, "x": 0.9215059713211837, "y": 0.5268617987148507}, {"type": "position", "time": 34482, "x": 0.9215059713211837, "y": 0.5268617987148507}, {"type": "position", "time": 34532, "x": 0.9215059713211837, "y": 0.5268617987148507}, {"type": "position", "time": 34582, "x": 0.9215059713211837, "y": 0.5268617987148507}, {"type": "position", "time": 34632, "x": 0.9215059713211837, "y": 0.5268617987148507}, {"type": "position", "time": 34682, "x": 0.9215059713211837, "y": 0.5268617987148507}, {"type": "position", "time": 34732, "x": 0.9215059713211837, "y": 0.5268617987148507}, {"type": "position", "time": 34782, "x": 0.9215059713211837, "y": 0.5268617987148507}, {"type": "position", "time": 34832, "x": 0.9215059713211837, "y": 0.5268617987148507}, {"type": "position", "time": 34882, "x": 0.9215059713211837, "y": 0.5268617987148507}, {"type": "position", "time": 34932, "x": 0.9215059713211837, "y": 0.5268617987148507}, {"type": "position", "time": 34982, "x": 0.9215059713211837, "y": 0.5268617987148507}, {"type": "position", "time": 35032, "x": 0.9215059713211837, "y": 0.5268617987148507}, {"type": "position", "time": 35082, "x": 0.9215059713211837, "y": 0.5268617987148507}, {"type": "position", "time": 35132, "x": 0.9215059713211837, "y": 0.5268617987148507}, {"type": "position", "time": 35182, "x": 0.9215059713211837, "y": 0.5268617987148507}, {"type": "position", "time": 35232, "x": 0.9215059713211837, "y": 0.5268617987148507}, {"type": "position", "time": 35282, "x": 0.9215059713211837, "y": 0.5268617987148507}, {"type": "position", "time": 35332, "x": 0.9215059713211837, "y": 0.5268617987148507}, {"type": "position", "time": 35382, "x": 0.9215059713211837, "y": 0.5268617987148507}, {"type": "position", "time": 35432, "x": 0.9215059713211837, "y": 0.5268617987148507}, {"type": "position", "time": 35482, "x": 0.9215059713211837, "y": 0.5268617987148507}, {"type": "position", "time": 35532, "x": 0.9215059713211837, "y": 0.5268617987148507}, {"type": "position", "time": 35582, "x": 0.9215059713211837, "y": 0.5268617987148507}, {"type": "position", "time": 35631, "x": 0.9215059713211837, "y": 0.5268617987148507}, {"type": "position", "time": 35681, "x": 0.9215059713211837, "y": 0.5268617987148507}, {"type": "position", "time": 35731, "x": 0.9215059713211837, "y": 0.5268617987148507}, {"type": "position", "time": 35781, "x": 0.9215059713211837, "y": 0.5268617987148507}, {"type": "position", "time": 35831, "x": 0.9215059713211837, "y": 0.5268617987148507}, {"type": "position", "time": 35881, "x": 0.9215059713211837, "y": 0.5268617987148507}, {"type": "position", "time": 35931, "x": 0.9215059713211837, "y": 0.5268617987148507}, {"type": "position", "time": 35981, "x": 0.9215059713211837, "y": 0.5268617987148507}, {"type": "position", "time": 36031, "x": 0.9215059713211837, "y": 0.5268617987148507}, {"type": "position", "time": 36081, "x": 0.9215059713211837, "y": 0.5268617987148507}, {"type": "position", "time": 36131, "x": 0.9215059713211837, "y": 0.5268617987148507}, {"type": "position", "time": 36181, "x": 0.9215059713211837, "y": 0.5268617987148507}, {"type": "position", "time": 36231, "x": 0.9215059713211837, "y": 0.5268617987148507}, {"type": "position", "time": 36281, "x": 0.9215059713211837, "y": 0.5268617987148507}, {"type": "position", "time": 36331, "x": 0.9215059713211837, "y": 0.5268617987148507}, {"type": "position", "time": 36381, "x": 0.9215059713211837, "y": 0.5268617987148507}, {"type": "position", "time": 36431, "x": 0.9215059713211837, "y": 0.5268617987148507}, {"type": "position", "time": 36481, "x": 0.9215059713211837, "y": 0.5268617987148507}, {"type": "position", "time": 36531, "x": 0.9215059713211837, "y": 0.5268617987148507}, {"type": "position", "time": 36581, "x": 0.9215059713211837, "y": 0.5268617987148507}, {"type": "position", "time": 36631, "x": 0.9215059713211837, "y": 0.5268617987148507}, {"type": "position", "time": 36681, "x": 0.9215059713211837, "y": 0.5268617987148507}, {"type": "position", "time": 36731, "x": 0.9215059713211837, "y": 0.5268617987148507}, {"type": "position", "time": 36781, "x": 0.9215059713211837, "y": 0.5268617987148507}, {"type": "position", "time": 36831, "x": 0.9215059713211837, "y": 0.5268617987148507}, {"type": "position", "time": 36881, "x": 0.9215059713211837, "y": 0.5268617987148507}, {"type": "position", "time": 36931, "x": 0.9202556240059583, "y": 0.5251945145417024}, {"type": "position", "time": 36981, "x": 0.9202556240059583, "y": 0.5251945145417024}, {"type": "position", "time": 37031, "x": 0.9202556240059583, "y": 0.5251945145417024}, {"type": "position", "time": 37081, "x": 0.9202556240059583, "y": 0.5251945145417024}, {"type": "position", "time": 37131, "x": 0.9202556240059583, "y": 0.5251945145417024}, {"type": "position", "time": 37181, "x": 0.9202556240059583, "y": 0.5251945145417024}, {"type": "position", "time": 37231, "x": 0.9202556240059583, "y": 0.5251945145417024}, {"type": "position", "time": 37281, "x": 0.9202556240059583, "y": 0.5251945145417024}, {"type": "position", "time": 37331, "x": 0.9202556240059583, "y": 0.5251945145417024}, {"type": "position", "time": 37381, "x": 0.9202556240059583, "y": 0.5251945145417024}, {"type": "position", "time": 37431, "x": 0.9202556240059583, "y": 0.5251945145417024}, {"type": "position", "time": 37481, "x": 0.9202556240059583, "y": 0.5251945145417024}, {"type": "position", "time": 37531, "x": 0.9202556240059583, "y": 0.5251945145417024}, {"type": "position", "time": 37581, "x": 0.9202556240059583, "y": 0.5251945145417024}, {"type": "position", "time": 37631, "x": 0.9202556240059583, "y": 0.5251945145417024}, {"type": "position", "time": 37681, "x": 0.9202556240059583, "y": 0.5251945145417024}, {"type": "position", "time": 37731, "x": 0.9202556240059583, "y": 0.5251945145417024}, {"type": "position", "time": 37781, "x": 0.9202556240059583, "y": 0.5251945145417024}, {"type": "position", "time": 37831, "x": 0.9202556240059583, "y": 0.5251945145417024}, {"type": "position", "time": 37881, "x": 0.9202556240059583, "y": 0.5251945145417024}, {"type": "position", "time": 37931, "x": 0.9202556240059583, "y": 0.5251945145417024}, {"type": "position", "time": 37981, "x": 0.9202556240059583, "y": 0.5251945145417024}, {"type": "position", "time": 38028, "x": 0.9202556240059583, "y": 0.5251945145417024}, {"type": "position", "time": 38078, "x": 0.9202556240059583, "y": 0.5251945145417024}, {"type": "position", "time": 38128, "x": 0.9202556240059583, "y": 0.5251945145417024}, {"type": "position", "time": 38178, "x": 0.9202556240059583, "y": 0.5251945145417024}, {"type": "position", "time": 38228, "x": 0.9202556240059583, "y": 0.5251945145417024}, {"type": "position", "time": 38278, "x": 0.9202556240059583, "y": 0.5251945145417024}, {"type": "position", "time": 38328, "x": 0.9202556240059583, "y": 0.5251945145417024}, {"type": "position", "time": 38378, "x": 0.9202556240059583, "y": 0.5251945145417024}, {"type": "position", "time": 38437, "x": 0.9202556240059583, "y": 0.5251945145417024}, {"type": "position", "time": 38478, "x": 0.9202556240059583, "y": 0.5251945145417024}, {"type": "keyup", "time": 38490, "key": "B", "keyCode": 66}, {"type": "position", "time": 38528, "x": 0.9202556240059583, "y": 0.5251945145417024}, {"type": "position", "time": 38578, "x": 0.9202556240059583, "y": 0.5251945145417024}, {"type": "position", "time": 38628, "x": 0.9202556240059583, "y": 0.5251945145417024}, {"type": "position", "time": 38678, "x": 0.9202556240059583, "y": 0.5251945145417024}, {"type": "position", "time": 38728, "x": 0.9202556240059583, "y": 0.5251945145417024}, {"type": "position", "time": 38778, "x": 0.9202556240059583, "y": 0.5251945145417024}, {"type": "keyup", "time": 38800, "key": "E", "keyCode": 69}, {"type": "position", "time": 38828, "x": 0.9202556240059583, "y": 0.5251945145417024}, {"type": "position", "time": 38878, "x": 0.9202556240059583, "y": 0.5251945145417024}, {"type": "position", "time": 38928, "x": 0.9202556240059583, "y": 0.5251945145417024}, {"type": "position", "time": 38978, "x": 0.9202556240059583, "y": 0.5251945145417024}, {"type": "position", "time": 39028, "x": 0.9202556240059583, "y": 0.5251945145417024}, {"type": "position", "time": 39078, "x": 0.9202556240059583, "y": 0.5251945145417024}, {"type": "position", "time": 39128, "x": 0.9202556240059583, "y": 0.5251945145417024}, {"type": "position", "time": 39178, "x": 0.9202556240059583, "y": 0.5251945145417024}, {"type": "position", "time": 39228, "x": 0.9202556240059583, "y": 0.5251945145417024}, {"type": "position", "time": 39278, "x": 0.9202556240059583, "y": 0.5251945145417024}, {"type": "position", "time": 39328, "x": 0.9202556240059583, "y": 0.5251945145417024}, {"type": "position", "time": 39378, "x": 0.9202556240059583, "y": 0.5251945145417024}, {"type": "position", "time": 39428, "x": 0.9202556240059583, "y": 0.5251945145417024}, {"type": "position", "time": 39478, "x": 0.9202556240059583, "y": 0.5251945145417024}, {"type": "position", "time": 39528, "x": 0.9202556240059583, "y": 0.5251945145417024}, {"type": "position", "time": 39578, "x": 0.9202556240059583, "y": 0.5251945145417024}, {"type": "position", "time": 39628, "x": 0.9202556240059583, "y": 0.5251945145417024}, {"type": "position", "time": 39678, "x": 0.9202556240059583, "y": 0.5251945145417024}, {"type": "position", "time": 39728, "x": 0.9202556240059583, "y": 0.5251945145417024}, {"type": "position", "time": 39778, "x": 0.9202556240059583, "y": 0.5251945145417024}, {"type": "position", "time": 39828, "x": 0.9202556240059583, "y": 0.5251945145417024}, {"type": "position", "time": 39878, "x": 0.9202556240059583, "y": 0.5251945145417024}, {"type": "position", "time": 39927, "x": 0.9202556240059583, "y": 0.5251945145417024}, {"type": "position", "time": 39976, "x": 0.9202556240059583, "y": 0.5251945145417024}, {"type": "position", "time": 40026, "x": 0.9202556240059583, "y": 0.5251945145417024}, {"type": "position", "time": 40076, "x": 0.9202556240059583, "y": 0.5251945145417024}, {"type": "position", "time": 40126, "x": 0.9202556240059583, "y": 0.5251945145417024}, {"type": "position", "time": 40176, "x": 0.9202556240059583, "y": 0.5251945145417024}, {"type": "position", "time": 40226, "x": 0.9202556240059583, "y": 0.5251945145417024}, {"type": "position", "time": 40276, "x": 0.9202556240059583, "y": 0.5251945145417024}, {"type": "position", "time": 40326, "x": 0.9202556240059583, "y": 0.5251945145417024}, {"type": "position", "time": 40376, "x": 0.9202556240059583, "y": 0.5251945145417024}, {"type": "position", "time": 40426, "x": 0.9202556240059583, "y": 0.5251945145417024}, {"type": "position", "time": 40476, "x": 0.9202556240059583, "y": 0.5251945145417024}, {"type": "position", "time": 40526, "x": 0.9202556240059583, "y": 0.5251945145417024}, {"type": "position", "time": 40576, "x": 0.9202556240059583, "y": 0.5251945145417024}, {"type": "position", "time": 40626, "x": 0.9202556240059583, "y": 0.5251945145417024}, {"type": "position", "time": 40676, "x": 0.9202556240059583, "y": 0.5251945145417024}, {"type": "position", "time": 40726, "x": 0.9202556240059583, "y": 0.5251945145417024}, {"type": "position", "time": 40776, "x": 0.9202556240059583, "y": 0.5251945145417024}, {"type": "position", "time": 40826, "x": 0.9202556240059583, "y": 0.5251945145417024}, {"type": "position", "time": 40876, "x": 0.9202556240059583, "y": 0.5251945145417024}, {"type": "position", "time": 40926, "x": 0.9202556240059583, "y": 0.5251945145417024}, {"type": "position", "time": 40976, "x": 0.9202556240059583, "y": 0.5251945145417024}, {"type": "position", "time": 41026, "x": 0.9202556240059583, "y": 0.5251945145417024}, {"type": "position", "time": 41076, "x": 0.9202556240059583, "y": 0.5251945145417024}, {"type": "position", "time": 41126, "x": 0.9202556240059583, "y": 0.5251945145417024}, {"type": "position", "time": 41176, "x": 0.9202556240059583, "y": 0.5251945145417024}, {"type": "position", "time": 41226, "x": 0.9202556240059583, "y": 0.5251945145417024}, {"type": "position", "time": 41276, "x": 0.9202556240059583, "y": 0.5251945145417024}, {"type": "position", "time": 41326, "x": 0.9202556240059583, "y": 0.5251945145417024}, {"type": "position", "time": 41376, "x": 0.9202556240059583, "y": 0.5251945145417024}, {"type": "position", "time": 41426, "x": 0.9202556240059583, "y": 0.5251945145417024}, {"type": "position", "time": 41476, "x": 0.9202556240059583, "y": 0.5251945145417024}, {"type": "position", "time": 41526, "x": 0.9202556240059583, "y": 0.5251945145417024}, {"type": "position", "time": 41576, "x": 0.9202556240059583, "y": 0.5251945145417024}, {"type": "position", "time": 41626, "x": 0.9202556240059583, "y": 0.5251945145417024}, {"type": "position", "time": 41676, "x": 0.9202556240059583, "y": 0.5251945145417024}, {"type": "position", "time": 41726, "x": 0.9202556240059583, "y": 0.5251945145417024}, {"type": "position", "time": 41776, "x": 0.9202556240059583, "y": 0.5251945145417024}, {"type": "position", "time": 41826, "x": 0.9202556240059583, "y": 0.5251945145417024}, {"type": "position", "time": 41876, "x": 0.9202556240059583, "y": 0.5251945145417024}, {"type": "position", "time": 41926, "x": 0.9202556240059583, "y": 0.5251945145417024}, {"type": "position", "time": 41976, "x": 0.9202556240059583, "y": 0.5251945145417024}, {"type": "position", "time": 42026, "x": 0.9202556240059583, "y": 0.5251945145417024}, {"type": "position", "time": 42076, "x": 0.9202556240059583, "y": 0.5251945145417024}, {"type": "position", "time": 42126, "x": 0.9202556240059583, "y": 0.5251945145417024}, {"type": "position", "time": 42176, "x": 0.9202556240059583, "y": 0.5251945145417024}, {"type": "position", "time": 42226, "x": 0.9202556240059583, "y": 0.5251945145417024}, {"type": "position", "time": 42276, "x": 0.9202556240059583, "y": 0.5251945145417024}, {"type": "position", "time": 42326, "x": 0.9202556240059583, "y": 0.5251945145417024}, {"type": "position", "time": 42376, "x": 0.9202556240059583, "y": 0.5251945145417024}, {"type": "position", "time": 42426, "x": 0.9202556240059583, "y": 0.5251945145417024}, {"type": "position", "time": 42476, "x": 0.9202556240059583, "y": 0.5251945145417024}, {"type": "position", "time": 42526, "x": 0.9202556240059583, "y": 0.5251945145417024}, {"type": "position", "time": 42576, "x": 0.9202556240059583, "y": 0.5251945145417024}, {"type": "position", "time": 42626, "x": 0.9202556240059583, "y": 0.5251945145417024}, {"type": "position", "time": 42675, "x": 0.9202556240059583, "y": 0.5251945145417024}, {"type": "position", "time": 42725, "x": 0.9202556240059583, "y": 0.5251945145417024}, {"type": "position", "time": 42775, "x": 0.9202556240059583, "y": 0.5251945145417024}, {"type": "position", "time": 42825, "x": 0.9202556240059583, "y": 0.5251945145417024}, {"type": "position", "time": 42875, "x": 0.9202556240059583, "y": 0.5251945145417024}, {"type": "position", "time": 42925, "x": 0.9202556240059583, "y": 0.5251945145417024}, {"type": "position", "time": 42975, "x": 0.9202556240059583, "y": 0.5251945145417024}, {"type": "position", "time": 43025, "x": 0.9202556240059583, "y": 0.5251945145417024}, {"type": "position", "time": 43075, "x": 0.9202556240059583, "y": 0.5251945145417024}, {"type": "position", "time": 43125, "x": 0.9202556240059583, "y": 0.5251945145417024}, {"type": "position", "time": 43175, "x": 0.9202556240059583, "y": 0.5251945145417024}, {"type": "position", "time": 43225, "x": 0.9202556240059583, "y": 0.5251945145417024}, {"type": "position", "time": 43275, "x": 0.9202556240059583, "y": 0.5251945145417024}, {"type": "position", "time": 43325, "x": 0.9202556240059583, "y": 0.5251945145417024}, {"type": "position", "time": 43375, "x": 0.9202556240059583, "y": 0.5251945145417024}, {"type": "position", "time": 43425, "x": 0.9202556240059583, "y": 0.5251945145417024}, {"type": "position", "time": 43475, "x": 0.9202556240059583, "y": 0.5251945145417024}, {"type": "position", "time": 43525, "x": 0.9202556240059583, "y": 0.5251945145417024}, {"type": "position", "time": 43575, "x": 0.9202556240059583, "y": 0.5251945145417024}, {"type": "position", "time": 43625, "x": 0.9202556240059583, "y": 0.5251945145417024}, {"type": "position", "time": 43675, "x": 0.9202556240059583, "y": 0.5251945145417024}, {"type": "position", "time": 43725, "x": 0.9202556240059583, "y": 0.5251945145417024}, {"type": "position", "time": 43775, "x": 0.9202556240059583, "y": 0.5251945145417024}, {"type": "position", "time": 43825, "x": 0.9202556240059583, "y": 0.5251945145417024}, {"type": "position", "time": 43875, "x": 0.9202556240059583, "y": 0.5251945145417024}, {"type": "position", "time": 43925, "x": 0.9202556240059583, "y": 0.5251945145417024}, {"type": "position", "time": 43975, "x": 0.9202556240059583, "y": 0.5251945145417024}, {"type": "position", "time": 44025, "x": 0.9202556240059583, "y": 0.5251945145417024}, {"type": "position", "time": 44075, "x": 0.9202556240059583, "y": 0.5251945145417024}, {"type": "position", "time": 44125, "x": 0.9202556240059583, "y": 0.5251945145417024}, {"type": "position", "time": 44175, "x": 0.9202556240059583, "y": 0.5251945145417024}, {"type": "position", "time": 44225, "x": 0.9202556240059583, "y": 0.5251945145417024}, {"type": "position", "time": 44275, "x": 0.9202556240059583, "y": 0.5251945145417024}, {"type": "position", "time": 44325, "x": 0.9202556240059583, "y": 0.5251945145417024}, {"type": "position", "time": 44375, "x": 0.9202556240059583, "y": 0.5251945145417024}, {"type": "position", "time": 44426, "x": 0.9202556240059583, "y": 0.5251945145417024}, {"type": "position", "time": 44473, "x": 0.9202556240059583, "y": 0.5251945145417024}, {"type": "position", "time": 44522, "x": 0.9202556240059583, "y": 0.5251945145417024}, {"type": "position", "time": 44572, "x": 0.9202556240059583, "y": 0.5251945145417024}, {"type": "position", "time": 44622, "x": 0.9202556240059583, "y": 0.5251945145417024}, {"type": "position", "time": 44672, "x": 0.9202556240059583, "y": 0.5251945145417024}, {"type": "position", "time": 44722, "x": 0.9202556240059583, "y": 0.5251945145417024}, {"type": "position", "time": 44772, "x": 0.9202556240059583, "y": 0.5251945145417024}, {"type": "position", "time": 44822, "x": 0.9202556240059583, "y": 0.5251945145417024}, {"type": "position", "time": 44872, "x": 0.9202556240059583, "y": 0.5251945145417024}, {"type": "position", "time": 44922, "x": 0.9202556240059583, "y": 0.5251945145417024}, {"type": "position", "time": 44972, "x": 0.9202556240059583, "y": 0.5251945145417024}, {"type": "position", "time": 45022, "x": 0.9202556240059583, "y": 0.5251945145417024}, {"type": "position", "time": 45072, "x": 0.9202556240059583, "y": 0.5251945145417024}, {"type": "position", "time": 45122, "x": 0.9202556240059583, "y": 0.5251945145417024}, {"type": "position", "time": 45172, "x": 0.9202556240059583, "y": 0.5251945145417024}, {"type": "position", "time": 45222, "x": 0.9202556240059583, "y": 0.5251945145417024}, {"type": "position", "time": 45272, "x": 0.9202556240059583, "y": 0.5251945145417024}, {"type": "position", "time": 45322, "x": 0.9202556240059583, "y": 0.5251945145417024}, {"type": "position", "time": 45372, "x": 0.9202556240059583, "y": 0.5251945145417024}, {"type": "position", "time": 45422, "x": 0.9202556240059583, "y": 0.5251945145417024}, {"type": "position", "time": 45472, "x": 0.9202556240059583, "y": 0.5251945145417024}, {"type": "position", "time": 45523, "x": 0.9202556240059583, "y": 0.5251945145417024}, {"type": "position", "time": 45572, "x": 0.9202556240059583, "y": 0.5251945145417024}, {"type": "keyup", "time": 45618, "key": "C", "keyCode": 67}, {"type": "position", "time": 45622, "x": 0.9202556240059583, "y": 0.5251945145417024}, {"type": "position", "time": 45672, "x": 0.9202556240059583, "y": 0.5251945145417024}, {"type": "position", "time": 45722, "x": 0.9202556240059583, "y": 0.5251945145417024}, {"type": "keyup", "time": 45759, "key": "A", "keyCode": 65}, {"type": "position", "time": 45772, "x": 0.9202556240059583, "y": 0.5251945145417024}, {"type": "position", "time": 45822, "x": 0.9202556240059583, "y": 0.5251945145417024}, {"type": "position", "time": 45872, "x": 0.9202556240059583, "y": 0.5251945145417024}, {"type": "position", "time": 45922, "x": 0.9202556240059583, "y": 0.5251945145417024}, {"type": "position", "time": 45972, "x": 0.9202556240059583, "y": 0.5251945145417024}, {"type": "keyup", "time": 46009, "key": "U", "keyCode": 85}, {"type": "position", "time": 46022, "x": 0.9202556240059583, "y": 0.5251945145417024}, {"type": "position", "time": 46072, "x": 0.9202556240059583, "y": 0.5251945145417024}, {"type": "position", "time": 46123, "x": 0.9202556240059583, "y": 0.5251945145417024}, {"type": "keyup", "time": 46151, "key": "S", "keyCode": 83}, {"type": "position", "time": 46173, "x": 0.9202556240059583, "y": 0.5251945145417024}, {"type": "position", "time": 46223, "x": 0.9202556240059583, "y": 0.5251945145417024}, {"type": "position", "time": 46273, "x": 0.9202556240059583, "y": 0.5251945145417024}, {"type": "position", "time": 46322, "x": 0.9202556240059583, "y": 0.5251945145417024}, {"type": "position", "time": 46372, "x": 0.9202556240059583, "y": 0.5251945145417024}, {"type": "keyup", "time": 46403, "key": "E", "keyCode": 69}, {"type": "position", "time": 46422, "x": 0.9202556240059583, "y": 0.5251945145417024}, {"type": "position", "time": 46472, "x": 0.9202556240059583, "y": 0.5251945145417024}, {"type": "position", "time": 46522, "x": 0.9202556240059583, "y": 0.5251945145417024}, {"type": "keyup", "time": 46559, "key": " ", "keyCode": 32}, {"type": "position", "time": 46572, "x": 0.9202556240059583, "y": 0.5251945145417024}, {"type": "position", "time": 46622, "x": 0.9202556240059583, "y": 0.5251945145417024}, {"type": "position", "time": 46672, "x": 0.9202556240059583, "y": 0.5251945145417024}, {"type": "position", "time": 46722, "x": 0.9202556240059583, "y": 0.5251945145417024}, {"type": "position", "time": 46772, "x": 0.9202556240059583, "y": 0.5251945145417024}, {"type": "position", "time": 46822, "x": 0.9202556240059583, "y": 0.5251945145417024}, {"type": "position", "time": 46872, "x": 0.9202556240059583, "y": 0.5251945145417024}, {"type": "position", "time": 46922, "x": 0.9202556240059583, "y": 0.5251945145417024}, {"type": "position", "time": 46972, "x": 0.9202556240059583, "y": 0.5251945145417024}, {"type": "position", "time": 47022, "x": 0.9202556240059583, "y": 0.5251945145417024}, {"type": "position", "time": 47072, "x": 0.9202556240059583, "y": 0.5251945145417024}, {"type": "position", "time": 47122, "x": 0.9202556240059583, "y": 0.5251945145417024}, {"type": "position", "time": 47172, "x": 0.9202556240059583, "y": 0.5251945145417024}, {"type": "position", "time": 47222, "x": 0.9202556240059583, "y": 0.5251945145417024}, {"type": "position", "time": 47272, "x": 0.9202556240059583, "y": 0.52519451