{"ApprovalTime": "2016-03-10T21:05:27Z", "SubmitTime": "2016-03-10T21:01:47Z", "AssignmentId": "369J354OFDA2GJWBZEPZBE3FRSGG66", "HITId": "38G0E1M85M53D7EEUOHN21OJ7HQVU5", "answers": {"data": {"trials": [{"story": "painting", "time": 217813, "name": "Elizabeth", "rt": 22469, "blocknum": 0, "qtype": "probability", "response": 0.75, "trialnum": 1, "gender": "female", "qnum": 0}, {"story": "painting", "time": 217813, "name": "Elizabeth", "rt": 22469, "blocknum": 0, "qtype": "ungrammatical", "trialnum": 1, "gender": "female", "qnum": 0}, {"story": "painting", "time": 266477, "name": "Shannon", "rt": 48656, "blocknum": 0, "qtype": "explanation", "response": "she tried painting with the other hand", "trialnum": 2, "gender": "female", "qnum": 1}, {"story": "painting", "time": 270981, "name": "Shannon", "rt": 4484, "blocknum": 0, "qtype": "probability", "response": 0.86, "trialnum": 3, "gender": "female", "qnum": 2}, {"story": "painting", "time": 270981, "name": "Shannon", "rt": 4484, "blocknum": 0, "qtype": "ungrammatical", "trialnum": 3, "gender": "female", "qnum": 2}, {"story": "painting", "time": 295436, "name": "Miranda", "rt": 24443, "blocknum": 0, "qtype": "probability", "response": 0.83, "trialnum": 4, "gender": "female", "qnum": 3}, {"story": "painting", "time": 295436, "name": "Miranda", "rt": 24443, "blocknum": 0, "qtype": "ungrammatical", "response": false, "trialnum": 4, "gender": "female", "qnum": 3}, {"story": "painting", "time": 303353, "name": "Kelly", "rt": 7905, "blocknum": 0, "qtype": "probability", "response": 0.86, "trialnum": 5, "gender": "female", "qnum": 4}, {"story": "painting", "time": 303353, "name": "Kelly", "rt": 7905, "blocknum": 0, "qtype": "ungrammatical", "response": false, "trialnum": 5, "gender": "female", "qnum": 4}, {"story": "painting", "time": 310124, "name": "Timothy", "rt": 6755, "blocknum": 0, "qtype": "probability", "response": 0.87, "trialnum": 6, "gender": "male", "qnum": 5}, {"story": "painting", "time": 310124, "name": "Timothy", "rt": 6755, "blocknum": 0, "qtype": "ungrammatical", "response": false, "trialnum": 6, "gender": "male", "qnum": 5}, {"story": "Japan", "time": 319449, "name": "Corey", "rt": 9309, "blocknum": 1, "qtype": "probability", "response": 0.95, "trialnum": 8, "gender": "male", "qnum": 0}, {"story": "Japan", "time": 319449, "name": "Corey", "rt": 9309, "blocknum": 1, "qtype": "ungrammatical", "trialnum": 8, "gender": "male", "qnum": 0}, {"story": "Japan", "time": 351956, "name": "Caleb", "rt": 32503, "blocknum": 1, "qtype": "explanation", "response": "he speaks Japanese at home", "trialnum": 9, "gender": "male", "qnum": 1}, {"story": "Japan", "time": 358762, "name": "Caleb", "rt": 6794, "blocknum": 1, "qtype": "probability", "response": 0.8, "trialnum": 10, "gender": "male", "qnum": 2}, {"story": "Japan", "time": 358762, "name": "Caleb", "rt": 6794, "blocknum": 1, "qtype": "ungrammatical", "trialnum": 10, "gender": "male", "qnum": 2}, {"story": "Japan", "time": 366873, "name": "Lindsey", "rt": 8099, "blocknum": 1, "qtype": "probability", "response": 0.87, "trialnum": 11, "gender": "female", "qnum": 3}, {"story": "Japan", "time": 366873, "name": "Lindsey", "rt": 8099, "blocknum": 1, "qtype": "ungrammatical", "response": false, "trialnum": 11, "gender": "female", "qnum": 3}, {"story": "Japan", "time": 377825, "name": "Juan", "rt": 10940, "blocknum": 1, "qtype": "probability", "response": 0.86, "trialnum": 12, "gender": "male", "qnum": 4}, {"story": "Japan", "time": 377825, "name": "Juan", "rt": 10940, "blocknum": 1, "qtype": "ungrammatical", "response": false, "trialnum": 12, "gender": "male", "qnum": 4}, {"story": "Japan", "time": 398720, "name": "Jenna", "rt": 20883, "blocknum": 1, "qtype": "probability", "response": 0.88, "trialnum": 13, "gender": "female", "qnum": 5}, {"story": "Japan", "time": 398720, "name": "Jenna", "rt": 20883, "blocknum": 1, "qtype": "ungrammatical", "response": false, "trialnum": 13, "gender": "female", "qnum": 5}, {"story": "insomnia", "time": 407441, "name": "Adam", "rt": 8713, "blocknum": 2, "qtype": "probability", "response": 0.73, "trialnum": 15, "gender": "male", "qnum": 0}, {"story": "insomnia", "time": 407441, "name": "Adam", "rt": 8713, "blocknum": 2, "qtype": "ungrammatical", "trialnum": 15, "gender": "male", "qnum": 0}, {"story": "insomnia", "time": 466058, "name": "Austin", "rt": 58613, "blocknum": 2, "qtype": "explanation", "response": "he drank redbull", "trialnum": 16, "gender": "male", "qnum": 1}, {"story": "insomnia", "time": 472686, "name": "Austin", "rt": 6616, "blocknum": 2, "qtype": "probability", "response": 0.81, "trialnum": 17, "gender": "male", "qnum": 2}, {"story": "insomnia", "time": 472686, "name": "Austin", "rt": 6616, "blocknum": 2, "qtype": "ungrammatical", "trialnum": 17, "gender": "male", "qnum": 2}, {"story": "insomnia", "time": 483620, "name": "Courtney", "rt": 10926, "blocknum": 2, "qtype": "probability", "response": 0.5, "trialnum": 18, "gender": "female", "qnum": 3}, {"story": "insomnia", "time": 483620, "name": "Courtney", "rt": 10926, "blocknum": 2, "qtype": "ungrammatical", "response": false, "trialnum": 18, "gender": "female", "qnum": 3}, {"story": "insomnia", "time": 490360, "name": "Mark", "rt": 6728, "blocknum": 2, "qtype": "probability", "response": 0.5, "trialnum": 19, "gender": "male", "qnum": 4}, {"story": "insomnia", "time": 490360, "name": "Mark", "rt": 6728, "blocknum": 2, "qtype": "ungrammatical", "response": false, "trialnum": 19, "gender": "male", "qnum": 4}, {"story": "insomnia", "time": 497470, "name": "Brittany", "rt": 7098, "blocknum": 2, "qtype": "probability", "response": 0.5, "trialnum": 20, "gender": "female", "qnum": 5}, {"story": "insomnia", "time": 497470, "name": "Brittany", "rt": 7098, "blocknum": 2, "qtype": "ungrammatical", "response": false, "trialnum": 20, "gender": "female", "qnum": 5}, {"story": "guitar", "time": 507258, "name": "Christopher", "rt": 9776, "blocknum": 3, "qtype": "probability", "response": 0.88, "trialnum": 22, "gender": "male", "qnum": 0}, {"story": "guitar", "time": 507258, "name": "Christopher", "rt": 9776, "blocknum": 3, "qtype": "ungrammatical", "trialnum": 22, "gender": "male", "qnum": 0}, {"story": "guitar", "time": 551011, "name": "Travis", "rt": 43749, "blocknum": 3, "qtype": "explanation", "response": "he doesn't know how to read music very well", "trialnum": 23, "gender": "male", "qnum": 1}, {"story": "guitar", "time": 554222, "name": "Travis", "rt": 3203, "blocknum": 3, "qtype": "probability", "response": 0.81, "trialnum": 24, "gender": "male", "qnum": 2}, {"story": "guitar", "time": 554222, "name": "Travis", "rt": 3203, "blocknum": 3, "qtype": "ungrammatical", "trialnum": 24, "gender": "male", "qnum": 2}, {"story": "guitar", "time": 562807, "name": "Scott", "rt": 8577, "blocknum": 3, "qtype": "probability", "response": 0.66, "trialnum": 25, "gender": "male", "qnum": 3}, {"story": "guitar", "time": 562807, "name": "Scott", "rt": 8577, "blocknum": 3, "qtype": "ungrammatical", "response": false, "trialnum": 25, "gender": "male", "qnum": 3}, {"story": "guitar", "time": 569365, "name": "Brian", "rt": 6550, "blocknum": 3, "qtype": "probability", "response": 0.92, "trialnum": 26, "gender": "male", "qnum": 4}, {"story": "guitar", "time": 569365, "name": "Brian", "rt": 6550, "blocknum": 3, "qtype": "ungrammatical", "response": false, "trialnum": 26, "gender": "male", "qnum": 4}, {"story": "guitar", "time": 574381, "name": "Connor", "rt": 5008, "blocknum": 3, "qtype": "probability", "response": 0.82, "trialnum": 27, "gender": "male", "qnum": 5}, {"story": "guitar", "time": 574381, "name": "Connor", "rt": 5008, "blocknum": 3, "qtype": "ungrammatical", "response": false, "trialnum": 27, "gender": "male", "qnum": 5}, {"story": "fitness", "time": 580946, "name": "Brooke", "rt": 6549, "blocknum": 4, "qtype": "probability", "response": 0.5, "trialnum": 29, "gender": "female", "qnum": 0}, {"story": "fitness", "time": 580946, "name": "Brooke", "rt": 6549, "blocknum": 4, "qtype": "ungrammatical", "trialnum": 29, "gender": "female", "qnum": 0}, {"story": "fitness", "time": 639749, "name": "Rick", "rt": 58799, "blocknum": 4, "qtype": "explanation", "response": "he was already an athlete", "trialnum": 30, "gender": "male", "qnum": 1}, {"story": "fitness", "time": 647664, "name": "Rick", "rt": 7903, "blocknum": 4, "qtype": "probability", "response": 0.35, "trialnum": 31, "gender": "male", "qnum": 2}, {"story": "fitness", "time": 647664, "name": "Rick", "rt": 7903, "blocknum": 4, "qtype": "ungrammatical", "trialnum": 31, "gender": "male", "qnum": 2}, {"story": "fitness", "time": 654936, "name": "Cassandra", "rt": 7264, "blocknum": 4, "qtype": "probability", "response": 0.51, "trialnum": 32, "gender": "female", "qnum": 3}, {"story": "fitness", "time": 654936, "name": "Cassandra", "rt": 7264, "blocknum": 4, "qtype": "ungrammatical", "response": false, "trialnum": 32, "gender": "female", "qnum": 3}, {"story": "fitness", "time": 662191, "name": "Jacqueline", "rt": 7247, "blocknum": 4, "qtype": "probability", "response": 0.72, "trialnum": 33, "gender": "female", "qnum": 4}, {"story": "fitness", "time": 662191, "name": "Jacqueline", "rt": 7247, "blocknum": 4, "qtype": "ungrammatical", "response": false, "trialnum": 33, "gender": "female", "qnum": 4}, {"story": "fitness", "time": 667837, "name": "Daniel", "rt": 5638, "blocknum": 4, "qtype": "probability", "response": 0.48, "trialnum": 34, "gender": "male", "qnum": 5}, {"story": "fitness", "time": 667837, "name": "Daniel", "rt": 5638, "blocknum": 4, "qtype": "ungrammatical", "response": false, "trialnum": 34, "gender": "male", "qnum": 5}, {"story": "coffee", "time": 673433, "name": "Kyle", "rt": 5584, "blocknum": 5, "qtype": "probability", "response": 0.72, "trialnum": 36, "gender": "male", "qnum": 0}, {"story": "coffee", "time": 673433, "name": "Kyle", "rt": 5584, "blocknum": 5, "qtype": "ungrammatical", "trialnum": 36, "gender": "male", "qnum": 0}, {"story": "coffee", "time": 718547, "name": "Michelle", "rt": 45110, "blocknum": 5, "qtype": "explanation", "response": "she had coffee very early in the morning", "trialnum": 37, "gender": "female", "qnum": 1}, {"story": "coffee", "time": 747793, "name": "Michelle", "rt": 29234, "blocknum": 5, "qtype": "probability", "response": 0.71, "trialnum": 38, "gender": "female", "qnum": 2}, {"story": "coffee", "time": 747793, "name": "Michelle", "rt": 29234, "blocknum": 5, "qtype": "ungrammatical", "trialnum": 38, "gender": "female", "qnum": 2}, {"story": "coffee", "time": 756546, "name": "Victoria", "rt": 8745, "blocknum": 5, "qtype": "probability", "response": 0.67, "trialnum": 39, "gender": "female", "qnum": 3}, {"story": "coffee", "time": 756546, "name": "Victoria", "rt": 8745, "blocknum": 5, "qtype": "ungrammatical", "response": false, "trialnum": 39, "gender": "female", "qnum": 3}, {"story": "coffee", "time": 764655, "name": "Emma", "rt": 8101, "blocknum": 5, "qtype": "probability", "response": 0.63, "trialnum": 40, "gender": "female", "qnum": 4}, {"story": "coffee", "time": 764655, "name": "Emma", "rt": 8101, "blocknum": 5, "qtype": "ungrammatical", "response": false, "trialnum": 40, "gender": "female", "qnum": 4}, {"story": "coffee", "time": 782755, "name": "Will", "rt": 18092, "blocknum": 5, "qtype": "probability", "response": 0.73, "trialnum": 41, "gender": "male", "qnum": 5}, {"story": "coffee", "time": 782755, "name": "Will", "rt": 18092, "blocknum": 5, "qtype": "ungrammatical", "response": false, "trialnum": 41, "gender": "male", "qnum": 5}, {"story": "reading", "time": 796242, "name": "Sarah", "rt": 13479, "blocknum": 6, "qtype": "probability", "response": 0.75, "trialnum": 43, "gender": "female", "qnum": 0}, {"story": "reading", "time": 796242, "name": "Sarah", "rt": 13479, "blocknum": 6, "qtype": "ungrammatical", "trialnum": 43, "gender": "female", "qnum": 0}, {"story": "reading", "time": 834067, "name": "David", "rt": 37821, "blocknum": 6, "qtype": "explanation", "response": "he took an asprin", "trialnum": 44, "gender": "male", "qnum": 1}, {"story": "reading", "time": 840893, "name": "David", "rt": 6818, "blocknum": 6, "qtype": "probability", "response": 0.72, "trialnum": 45, "gender": "male", "qnum": 2}, {"story": "reading", "time": 840893, "name": "David", "rt": 6818, "blocknum": 6, "qtype": "ungrammatical", "trialnum": 45, "gender": "male", "qnum": 2}, {"story": "reading", "time": 847801, "name": "Jacob", "rt": 6896, "blocknum": 6, "qtype": "probability", "response": 0.69, "trialnum": 46, "gender": "male", "qnum": 3}, {"story": "reading", "time": 847801, "name": "Jacob", "rt": 6896, "blocknum": 6, "qtype": "ungrammatical", "response": false, "trialnum": 46, "gender": "male", "qnum": 3}, {"story": "reading", "time": 853852, "name": "Amy", "rt": 6047, "blocknum": 6, "qtype": "probability", "response": 0.69, "trialnum": 47, "gender": "female", "qnum": 4}, {"story": "reading", "time": 853852, "name": "Amy", "rt": 6047, "blocknum": 6, "qtype": "ungrammatical", "response": false, "trialnum": 47, "gender": "female", "qnum": 4}, {"story": "reading", "time": 861596, "name": "Gabrielle", "rt": 7736, "blocknum": 6, "qtype": "probability", "response": 0.74, "trialnum": 48, "gender": "female", "qnum": 5}, {"story": "reading", "time": 861596, "name": "Gabrielle", "rt": 7736, "blocknum": 6, "qtype": "ungrammatical", "response": false, "trialnum": 48, "gender": "female", "qnum": 5}, {"story": "beach", "time": 868065, "name": "Olivia", "rt": 6457, "blocknum": 7, "qtype": "probability", "response": 0.74, "trialnum": 50, "gender": "female", "qnum": 0}, {"story": "beach", "time": 868065, "name": "Olivia", "rt": 6457, "blocknum": 7, "qtype": "ungrammatical", "trialnum": 50, "gender": "female", "qnum": 0}, {"story": "beach", "time": 901423, "name": "Laura", "rt": 33350, "blocknum": 7, "qtype": "explanation", "response": "there wasn't much wind", "trialnum": 51, "gender": "female", "qnum": 1}, {"story": "beach", "time": 903870, "name": "Laura", "rt": 2439, "blocknum": 7, "qtype": "probability", "response": 0.79, "trialnum": 52, "gender": "female", "qnum": 2}, {"story": "beach", "time": 903870, "name": "Laura", "rt": 2439, "blocknum": 7, "qtype": "ungrammatical", "trialnum": 52, "gender": "female", "qnum": 2}, {"story": "beach", "time": 911513, "name": "Jennifer", "rt": 7635, "blocknum": 7, "qtype": "probability", "response": 0.75, "trialnum": 53, "gender": "female", "qnum": 3}, {"story": "beach", "time": 911513, "name": "Jennifer", "rt": 7635, "blocknum": 7, "qtype": "ungrammatical", "response": false, "trialnum": 53, "gender": "female", "qnum": 3}, {"story": "beach", "time": 916337, "name": "Michael", "rt": 4816, "blocknum": 7, "qtype": "probability", "response": 0.71, "trialnum": 54, "gender": "male", "qnum": 4}, {"story": "beach", "time": 916337, "name": "Michael", "rt": 4816, "blocknum": 7, "qtype": "ungrammatical", "response": false, "trialnum": 54, "gender": "male", "qnum": 4}, {"story": "beach", "time": 920561, "name": "Melissa", "rt": 4220, "blocknum": 7, "qtype": "probability", "response": 0.76, "trialnum": 55, "gender": "female", "qnum": 5}, {"story": "beach", "time": 920561, "name": "Melissa", "rt": 4220, "blocknum": 7, "qtype": "ungrammatical", "response": false, "trialnum": 55, "gender": "female", "qnum": 5}, {"story": "cooking", "time": 928098, "name": "Allison", "rt": 7529, "blocknum": 8, "qtype": "probability", "response": 0.64, "trialnum": 57, "gender": "female", "qnum": 0}, {"story": "cooking", "time": 928098, "name": "Allison", "rt": 7529, "blocknum": 8, "qtype": "ungrammatical", "trialnum": 57, "gender": "female", "qnum": 0}, {"story": "cooking", "time": 956618, "name": "Devin", "rt": 28516, "blocknum": 8, "qtype": "explanation", "response": "he took friends with him", "trialnum": 58, "gender": "male", "qnum": 1}, {"story": "cooking", "time": 960225, "name": "Devin", "rt": 3603, "blocknum": 8, "qtype": "probability", "response": 0.62, "trialnum": 59, "gender": "male", "qnum": 2}, {"story": "cooking", "time": 960225, "name": "Devin", "rt": 3603, "blocknum": 8, "qtype": "ungrammatical", "trialnum": 59, "gender": "male", "qnum": 2}, {"story": "cooking", "time": 968347, "name": "Samantha", "rt": 8114, "blocknum": 8, "qtype": "probability", "response": 0.7, "trialnum": 60, "gender": "female", "qnum": 3}, {"story": "cooking", "time": 968347, "name": "Samantha", "rt": 8114, "blocknum": 8, "qtype": "ungrammatical", "response": false, "trialnum": 60, "gender": "female", "qnum": 3}, {"story": "cooking", "time": 973370, "name": "Dustin", "rt": 5011, "blocknum": 8, "qtype": "probability", "response": 0.71, "trialnum": 61, "gender": "male", "qnum": 4}, {"story": "cooking", "time": 973370, "name": "Dustin", "rt": 5011, "blocknum": 8, "qtype": "ungrammatical", "response": false, "trialnum": 61, "gender": "male", "qnum": 4}, {"story": "cooking", "time": 985592, "name": "Angela", "rt": 12210, "blocknum": 8, "qtype": "probability", "response": 0.71, "trialnum": 62, "gender": "female", "qnum": 5}, {"story": "cooking", "time": 985592, "name": "Angela", "rt": 12210, "blocknum": 8, "qtype": "ungrammatical", "response": false, "trialnum": 62, "gender": "female", "qnum": 5}], "events": [{"type": "position", "time": 245, "x": 0, "y": 0}, {"type": "position", "time": 305, "x": 0, "y": 0}, {"type": "position", "time": 717, "x": 0, "y": 0}, {"type": "position", "time": 773, "x": 0, "y": 0}, {"type": "position", "time": 793, "x": 0, "y": 0}, {"type": "position", "time": 842, "x": 0, "y": 0}, {"type": "position", "time": 895, "x": 0, "y": 0}, {"type": "position", "time": 946, "x": 0, "y": 0}, {"type": "position", "time": 994, "x": 0, "y": 0}, {"type": "position", "time": 1044, "x": 0, "y": 0}, {"type": "position", "time": 1092, "x": 0, "y": 0}, {"type": "position", "time": 1145, "x": 0, "y": 0}, {"type": "position", "time": 1197, "x": 0, "y": 0}, {"type": "position", "time": 1244, "x": 0, "y": 0}, {"type": "position", "time": 1307, "x": 0, "y": 0}, {"type": "position", "time": 1354, "x": 0, "y": 0}, {"type": "position", "time": 1390, "x": 0, "y": 0}, {"type": "position", "time": 1447, "x": 0, "y": 0}, {"type": "position", "time": 1494, "x": 0, "y": 0}, {"type": "position", "time": 1541, "x": 0, "y": 0}, {"type": "position", "time": 1603, "x": 0, "y": 0}, {"type": "position", "time": 1651, "x": 0, "y": 0}, {"type": "position", "time": 1698, "x": 0, "y": 0}, {"type": "position", "time": 1744, "x": 0, "y": 0}, {"type": "position", "time": 1807, "x": 0, "y": 0}, {"type": "position", "time": 1845, "x": 0, "y": 0}, {"type": "position", "time": 1892, "x": 0, "y": 0}, {"type": "position", "time": 1954, "x": 0, "y": 0}, {"type": "position", "time": 2001, "x": 0, "y": 0}, {"type": "position", "time": 2048, "x": 0, "y": 0}, {"type": "position", "time": 2095, "x": 0, "y": 0}, {"type": "position", "time": 2142, "x": 0, "y": 0}, {"type": "position", "time": 2204, "x": 0, "y": 0}, {"type": "position", "time": 2252, "x": 0, "y": 0}, {"type": "position", "time": 2298, "x": 0, "y": 0}, {"type": "position", "time": 2345, "x": 0, "y": 0}, {"type": "position", "time": 2392, "x": 0, "y": 0}, {"type": "position", "time": 2449, "x": 0, "y": 0}, {"type": "position", "time": 2496, "x": 0, "y": 0}, {"type": "position", "time": 2544, "x": 0, "y": 0}, {"type": "position", "time": 2638, "x": 0, "y": 0}, {"type": "position", "time": 2642, "x": 0, "y": 0}, {"type": "position", "time": 2694, "x": 0, "y": 0}, {"type": "position", "time": 2750, "x": 0, "y": 0}, {"type": "position", "time": 2796, "x": 0, "y": 0}, {"type": "position", "time": 2843, "x": 0, "y": 0}, {"type": "position", "time": 2906, "x": 0, "y": 0}, {"type": "position", "time": 2953, "x": 0, "y": 0}, {"type": "position", "time": 3000, "x": 0, "y": 0}, {"type": "position", "time": 3047, "x": 0, "y": 0}, {"type": "position", "time": 3094, "x": 0, "y": 0}, {"type": "position", "time": 3140, "x": 0, "y": 0}, {"type": "position", "time": 3281, "x": 0, "y": 0}, {"type": "position", "time": 3343, "x": 0, "y": 0}, {"type": "position", "time": 3406, "x": 0, "y": 0}, {"type": "position", "time": 3442, "x": 0, "y": 0}, {"type": "position", "time": 3499, "x": 0, "y": 0}, {"type": "position", "time": 3546, "x": 0, "y": 0}, {"type": "position", "time": 3593, "x": 0, "y": 0}, {"type": "position", "time": 3644, "x": 0, "y": 0}, {"type": "position", "time": 3692, "x": 0, "y": 0}, {"type": "position", "time": 3747, "x": 0, "y": 0}, {"type": "position", "time": 3793, "x": 0, "y": 0}, {"type": "position", "time": 3856, "x": 0, "y": 0}, {"type": "position", "time": 3903, "x": 0, "y": 0}, {"type": "position", "time": 4578, "x": 0, "y": 0}, {"type": "position", "time": 5580, "x": 0, "y": 0}, {"type": "position", "time": 6582, "x": 0, "y": 0}, {"type": "position", "time": 7618, "x": 0, "y": 0}, {"type": "position", "time": 8580, "x": 0, "y": 0}, {"type": "position", "time": 9591, "x": 0, "y": 0}, {"type": "position", "time": 10591, "x": 0, "y": 0}, {"type": "position", "time": 11592, "x": 0, "y": 0}, {"type": "position", "time": 12593, "x": 0, "y": 0}, {"type": "position", "time": 13605, "x": 0, "y": 0}, {"type": "position", "time": 15983, "x": 0, "y": 0}, {"type": "position", "time": 16695, "x": 0, "y": 0}, {"type": "position", "time": 17579, "x": 0, "y": 0}, {"type": "position", "time": 18590, "x": 0, "y": 0}, {"type": "position", "time": 19579, "x": 0, "y": 0}, {"type": "position", "time": 20589, "x": 0, "y": 0}, {"type": "position", "time": 21588, "x": 0, "y": 0}, {"type": "position", "time": 22582, "x": 0, "y": 0}, {"type": "position", "time": 23585, "x": 0, "y": 0}, {"type": "position", "time": 24589, "x": 0, "y": 0}, {"type": "position", "time": 25583, "x": 0, "y": 0}, {"type": "position", "time": 26580, "x": 0, "y": 0}, {"type": "position", "time": 27584, "x": 0, "y": 0}, {"type": "position", "time": 28635, "x": 0, "y": 0}, {"type": "position", "time": 29578, "x": 0, "y": 0}, {"type": "position", "time": 30695, "x": 0, "y": 0}, {"type": "position", "time": 31576, "x": 0, "y": 0}, {"type": "position", "time": 32628, "x": 0, "y": 0}, {"type": "position", "time": 33578, "x": 0, "y": 0}, {"type": "position", "time": 34580, "x": 0, "y": 0}, {"type": "position", "time": 35584, "x": 0, "y": 0}, {"type": "position", "time": 36576, "x": 0, "y": 0}, {"type": "position", "time": 37718, "x": 0, "y": 0}, {"type": "position", "time": 38577, "x": 0, "y": 0}, {"type": "position", "time": 39590, "x": 0, "y": 0}, {"type": "position", "time": 40585, "x": 0, "y": 0}, {"type": "position", "time": 41590, "x": 0, "y": 0}, {"type": "position", "time": 42579, "x": 0, "y": 0}, {"type": "position", "time": 43581, "x": 0, "y": 0}, {"type": "position", "time": 44893, "x": 0, "y": 0}, {"type": "position", "time": 45579, "x": 0, "y": 0}, {"type": "position", "time": 46583, "x": 0, "y": 0}, {"type": "position", "time": 47578, "x": 0, "y": 0}, {"type": "position", "time": 48590, "x": 0, "y": 0}, {"type": "position", "time": 49623, "x": 0, "y": 0}, {"type": "position", "time": 50585, "x": 0, "y": 0}, {"type": "position", "time": 51594, "x": 0, "y": 0}, {"type": "position", "time": 52582, "x": 0, "y": 0}, {"type": "position", "time": 53697, "x": 0, "y": 0}, {"type": "position", "time": 54763, "x": 0, "y": 0}, {"type": "position", "time": 55583, "x": 0, "y": 0}, {"type": "position", "time": 56586, "x": 0, "y": 0}, {"type": "position", "time": 57580, "x": 0, "y": 0}, {"type": "position", "time": 58587, "x": 0, "y": 0}, {"type": "position", "time": 59592, "x": 0, "y": 0}, {"type": "position", "time": 60584, "x": 0, "y": 0}, {"type": "position", "time": 61577, "x": 0, "y": 0}, {"type": "position", "time": 62916, "x": 0, "y": 0}, {"type": "position", "time": 63591, "x": 0, "y": 0}, {"type": "position", "time": 64590, "x": 0, "y": 0}, {"type": "position", "time": 65583, "x": 0, "y": 0}, {"type": "position", "time": 66580, "x": 0, "y": 0}, {"type": "position", "time": 67585, "x": 0, "y": 0}, {"type": "position", "time": 68634, "x": 0, "y": 0}, {"type": "position", "time": 69821, "x": 0, "y": 0}, {"type": "position", "time": 70587, "x": 0, "y": 0}, {"type": "position", "time": 71589, "x": 0, "y": 0}, {"type": "position", "time": 72577, "x": 0, "y": 0}, {"type": "position", "time": 73583, "x": 0, "y": 0}, {"type": "position", "time": 75254, "x": 0, "y": 0}, {"type": "position", "time": 75580, "x": 0, "y": 0}, {"type": "position", "time": 76579, "x": 0, "y": 0}, {"type": "position", "time": 77588, "x": 0, "y": 0}, {"type": "position", "time": 78585, "x": 0, "y": 0}, {"type": "position", "time": 79581, "x": 0, "y": 0}, {"type": "position", "time": 80577, "x": 0, "y": 0}, {"type": "position", "time": 81589, "x": 0, "y": 0}, {"type": "position", "time": 82577, "x": 0, "y": 0}, {"type": "position", "time": 83579, "x": 0, "y": 0}, {"type": "position", "time": 85012, "x": 0, "y": 0}, {"type": "position", "time": 85590, "x": 0, "y": 0}, {"type": "position", "time": 86588, "x": 0, "y": 0}, {"type": "position", "time": 87584, "x": 0, "y": 0}, {"type": "position", "time": 88583, "x": 0, "y": 0}, {"type": "position", "time": 89583, "x": 0, "y": 0}, {"type": "position", "time": 90583, "x": 0, "y": 0}, {"type": "position", "time": 91580, "x": 0, "y": 0}, {"type": "position", "time": 92581, "x": 0, "y": 0}, {"type": "position", "time": 93637, "x": 0, "y": 0}, {"type": "position", "time": 94889, "x": 0, "y": 0}, {"type": "position", "time": 95578, "x": 0, "y": 0}, {"type": "position", "time": 96596, "x": 0, "y": 0}, {"type": "position", "time": 97585, "x": 0, "y": 0}, {"type": "position", "time": 98580, "x": 0, "y": 0}, {"type": "position", "time": 99592, "x": 0, "y": 0}, {"type": "position", "time": 100589, "x": 0, "y": 0}, {"type": "position", "time": 101579, "x": 0, "y": 0}, {"type": "position", "time": 102577, "x": 0, "y": 0}, {"type": "position", "time": 103587, "x": 0, "y": 0}, {"type": "position", "time": 105256, "x": 0, "y": 0}, {"type": "position", "time": 105578, "x": 0, "y": 0}, {"type": "position", "time": 106580, "x": 0, "y": 0}, {"type": "position", "time": 108152, "x": 0, "y": 0}, {"type": "position", "time": 108587, "x": 0, "y": 0}, {"type": "position", "time": 109588, "x": 0, "y": 0}, {"type": "position", "time": 110590, "x": 0, "y": 0}, {"type": "position", "time": 111681, "x": 0, "y": 0}, {"type": "position", "time": 113695, "x": 0, "y": 0}, {"type": "position", "time": 116952, "x": 0, "y": 0}, {"type": "position", "time": 118285, "x": 0, "y": 0}, {"type": "position", "time": 118581, "x": 0, "y": 0}, {"type": "position", "time": 119589, "x": 0, "y": 0}, {"type": "position", "time": 120583, "x": 0, "y": 0}, {"type": "position", "time": 121581, "x": 0, "y": 0}, {"type": "position", "time": 122581, "x": 0, "y": 0}, {"type": "position", "time": 123581, "x": 0, "y": 0}, {"type": "position", "time": 124582, "x": 0, "y": 0}, {"type": "position", "time": 125581, "x": 0, "y": 0}, {"type": "position", "time": 126588, "x": 0, "y": 0}, {"type": "position", "time": 127586, "x": 0, "y": 0}, {"type": "position", "time": 128639, "x": 0, "y": 0}, {"type": "position", "time": 130123, "x": 0, "y": 0}, {"type": "position", "time": 130591, "x": 0, "y": 0}, {"type": "position", "time": 131591, "x": 0, "y": 0}, {"type": "position", "time": 132592, "x": 0, "y": 0}, {"type": "position", "time": 133640, "x": 0, "y": 0}, {"type": "position", "time": 134580, "x": 0, "y": 0}, {"type": "position", "time": 136507, "x": 0, "y": 0}, {"type": "position", "time": 136592, "x": 0, "y": 0}, {"type": "position", "time": 137579, "x": 0, "y": 0}, {"type": "position", "time": 138588, "x": 0, "y": 0}, {"type": "position", "time": 139575, "x": 0, "y": 0}, {"type": "position", "time": 140582, "x": 0, "y": 0}, {"type": "position", "time": 142093, "x": 0, "y": 0}, {"type": "position", "time": 142581, "x": 0, "y": 0}, {"type": "position", "time": 143589, "x": 0, "y": 0}, {"type": "position", "time": 144585, "x": 0, "y": 0}, {"type": "position", "time": 145593, "x": 0, "y": 0}, {"type": "position", "time": 146580, "x": 0, "y": 0}, {"type": "position", "time": 147580, "x": 0, "y": 0}, {"type": "position", "time": 148579, "x": 0, "y": 0}, {"type": "position", "time": 149582, "x": 0, "y": 0}, {"type": "position", "time": 150588, "x": 0, "y": 0}, {"type": "position", "time": 151586, "x": 0, "y": 0}, {"type": "position", "time": 152582, "x": 0, "y": 0}, {"type": "position", "time": 153641, "x": 0, "y": 0}, {"type": "position", "time": 154590, "x": 0, "y": 0}, {"type": "position", "time": 155581, "x": 0, "y": 0}, {"type": "position", "time": 156582, "x": 0, "y": 0}, {"type": "position", "time": 157586, "x": 0, "y": 0}, {"type": "position", "time": 158584, "x": 0, "y": 0}, {"type": "position", "time": 159588, "x": 0, "y": 0}, {"type": "position", "time": 160577, "x": 0, "y": 0}, {"type": "position", "time": 161581, "x": 0, "y": 0}, {"type": "position", "time": 162578, "x": 0, "y": 0}, {"type": "position", "time": 163581, "x": 0, "y": 0}, {"type": "position", "time": 164582, "x": 0, "y": 0}, {"type": "position", "time": 165734, "x": 0, "y": 0}, {"type": "position", "time": 166579, "x": 0, "y": 0}, {"type": "position", "time": 167582, "x": 0, "y": 0}, {"type": "position", "time": 168582, "x": 0, "y": 0}, {"type": "position", "time": 169589, "x": 0, "y": 0}, {"type": "position", "time": 170588, "x": 0, "y": 0}, {"type": "position", "time": 171589, "x": 0, "y": 0}, {"type": "position", "time": 172588, "x": 0, "y": 0}, {"type": "position", "time": 173581, "x": 0, "y": 0}, {"type": "position", "time": 174582, "x": 0, "y": 0}, {"type": "position", "time": 175582, "x": 0, "y": 0}, {"type": "position", "time": 176584, "x": 0, "y": 0}, {"type": "position", "time": 177580, "x": 0, "y": 0}, {"type": "position", "time": 178342, "x": 0, "y": 0}, {"type": "position", "time": 178434, "x": 0, "y": 0}, {"type": "position", "time": 178442, "x": 0, "y": 0}, {"type": "position", "time": 178493, "x": 0, "y": 0}, {"type": "position", "time": 178543, "x": 0, "y": 0}, {"type": "position", "time": 178593, "x": 0, "y": 0}, {"type": "position", "time": 178643, "x": 0, "y": 0}, {"type": "position", "time": 178693, "x": 0, "y": 0}, {"type": "position", "time": 178744, "x": 0, "y": 0}, {"type": "position", "time": 178796, "x": 0, "y": 0}, {"type": "position", "time": 178846, "x": 0, "y": 0}, {"type": "position", "time": 178894, "x": 0, "y": 0}, {"type": "position", "time": 178944, "x": 0, "y": 0}, {"type": "position", "time": 179003, "x": 0, "y": 0}, {"type": "position", "time": 179050, "x": 0, "y": 0}, {"type": "position", "time": 179097, "x": 0, "y": 0}, {"type": "position", "time": 179143, "x": 0, "y": 0}, {"type": "position", "time": 179206, "x": 0, "y": 0}, {"type": "position", "time": 179253, "x": 0, "y": 0}, {"type": "position", "time": 179299, "x": 0, "y": 0}, {"type": "position", "time": 179347, "x": 0, "y": 0}, {"type": "position", "time": 179408, "x": 0, "y": 0}, {"type": "position", "time": 179457, "x": 0, "y": 0}, {"type": "position", "time": 179504, "x": 0, "y": 0}, {"type": "position", "time": 179551, "x": 0, "y": 0}, {"type": "position", "time": 179593, "x": 0, "y": 0}, {"type": "position", "time": 179644, "x": 0, "y": 0}, {"type": "position", "time": 179707, "x": 0, "y": 0}, {"type": "position", "time": 179754, "x": 0, "y": 0}, {"type": "position", "time": 179801, "x": 0, "y": 0}, {"type": "position", "time": 179848, "x": 0, "y": 0}, {"type": "position", "time": 179900, "x": 0, "y": 0}, {"type": "position", "time": 179946, "x": 0, "y": 0}, {"type": "position", "time": 179993, "x": 0, "y": 0}, {"type": "position", "time": 180056, "x": 0, "y": 0}, {"type": "position", "time": 180103, "x": 0, "y": 0}, {"type": "position", "time": 180150, "x": 0, "y": 0}, {"type": "position", "time": 180196, "x": 0, "y": 0}, {"type": "position", "time": 180277, "x": 0, "y": 0}, {"type": "position", "time": 180293, "x": 0, "y": 0}, {"type": "position", "time": 180341, "x": 0, "y": 0}, {"type": "position", "time": 180393, "x": 0, "y": 0}, {"type": "position", "time": 180443, "x": 0, "y": 0}, {"type": "position", "time": 180493, "x": 0, "y": 0}, {"type": "position", "time": 180546, "x": 0, "y": 0}, {"type": "position", "time": 180592, "x": 0, "y": 0}, {"type": "position", "time": 180644, "x": 0, "y": 0}, {"type": "position", "time": 180686, "x": 0, "y": 0}, {"type": "position", "time": 180733, "x": 0, "y": 0}, {"type": "position", "time": 180789, "x": 0, "y": 0}, {"type": "position", "time": 180848, "x": 0, "y": 0}, {"type": "position", "time": 180895, "x": 0, "y": 0}, {"type": "position", "time": 180957, "x": 0, "y": 0}, {"type": "position", "time": 181004, "x": 0, "y": 0}, {"type": "position", "time": 181054, "x": 0, "y": 0}, {"type": "position", "time": 181101, "x": 0, "y": 0}, {"type": "position", "time": 181194, "x": 0, "y": 0}, {"type": "position", "time": 181243, "x": 0, "y": 0}, {"type": "position", "time": 181286, "x": 0, "y": 0}, {"type": "position", "time": 181333, "x": 0, "y": 0}, {"type": "position", "time": 181395, "x": 0, "y": 0}, {"type": "position", "time": 181432, "x": 0, "y": 0}, {"type": "position", "time": 181479, "x": 0, "y": 0}, {"type": "position", "time": 181541, "x": 0, "y": 0}, {"type": "position", "time": 181604, "x": 0, "y": 0}, {"type": "position", "time": 181642, "x": 0, "y": 0}, {"type": "position", "time": 181695, "x": 0, "y": 0}, {"type": "position", "time": 181745, "x": 0, "y": 0}, {"type": "position", "time": 181793, "x": 0, "y": 0}, {"type": "position", "time": 181845, "x": 0, "y": 0}, {"type": "position", "time": 181894, "x": 0, "y": 0}, {"type": "position", "time": 181954, "x": 0, "y": 0}, {"type": "position", "time": 182000, "x": 0, "y": 0}, {"type": "position", "time": 182047, "x": 0, "y": 0}, {"type": "position", "time": 182094, "x": 0, "y": 0}, {"type": "position", "time": 182157, "x": 0, "y": 0}, {"type": "position", "time": 182204, "x": 0, "y": 0}, {"type": "position", "time": 182255, "x": 0, "y": 0}, {"type": "position", "time": 182301, "x": 0, "y": 0}, {"type": "position", "time": 182348, "x": 0, "y": 0}, {"type": "position", "time": 182394, "x": 0, "y": 0}, {"type": "position", "time": 182454, "x": 0, "y": 0}, {"type": "position", "time": 182501, "x": 0, "y": 0}, {"type": "position", "time": 182547, "x": 0, "y": 0}, {"type": "position", "time": 182594, "x": 0, "y": 0}, {"type": "position", "time": 182657, "x": 0, "y": 0}, {"type": "position", "time": 182704, "x": 0, "y": 0}, {"type": "position", "time": 182751, "x": 0, "y": 0}, {"type": "position", "time": 182798, "x": 0, "y": 0}, {"type": "position", "time": 182844, "x": 0, "y": 0}, {"type": "position", "time": 182938, "x": 0, "y": 0}, {"type": "position", "time": 182992, "x": 0, "y": 0}, {"type": "position", "time": 183040, "x": 0, "y": 0}, {"type": "position", "time": 183092, "x": 0, "y": 0}, {"type": "position", "time": 183143, "x": 0, "y": 0}, {"type": "position", "time": 183198, "x": 0, "y": 0}, {"type": "position", "time": 183243, "x": 0, "y": 0}, {"type": "position", "time": 183293, "x": 0, "y": 0}, {"type": "position", "time": 183343, "x": 0, "y": 0}, {"type": "position", "time": 183393, "x": 0, "y": 0}, {"type": "position", "time": 183441, "x": 0, "y": 0}, {"type": "position", "time": 183489, "x": 0, "y": 0}, {"type": "position", "time": 183541, "x": 0, "y": 0}, {"type": "position", "time": 183593, "x": 0, "y": 0}, {"type": "position", "time": 183641, "x": 0, "y": 0}, {"type": "position", "time": 183693, "x": 0, "y": 0}, {"type": "position", "time": 183766, "x": 0, "y": 0}, {"type": "position", "time": 183794, "x": 0, "y": 0}, {"type": "position", "time": 183843, "x": 0, "y": 0}, {"type": "position", "time": 183893, "x": 0, "y": 0}, {"type": "position", "time": 183945, "x": 0, "y": 0}, {"type": "position", "time": 183997, "x": 0, "y": 0}, {"type": "position", "time": 184043, "x": 0, "y": 0}, {"type": "position", "time": 184093, "x": 0, "y": 0}, {"type": "position", "time": 184143, "x": 0, "y": 0}, {"type": "position", "time": 184193, "x": 0, "y": 0}, {"type": "position", "time": 184243, "x": 0, "y": 0}, {"type": "position", "time": 184293, "x": 0, "y": 0}, {"type": "position", "time": 184343, "x": 0, "y": 0}, {"type": "position", "time": 184393, "x": 0, "y": 0}, {"type": "position", "time": 184443, "x": 0, "y": 0}, {"type": "position", "time": 184493, "x": 0, "y": 0}, {"type": "position", "time": 184549, "x": 0, "y": 0}, {"type": "position", "time": 184597, "x": 0, "y": 0}, {"type": "position", "time": 184643, "x": 0, "y": 0}, {"type": "position", "time": 184706, "x": 0, "y": 0}, {"type": "position", "time": 184753, "x": 0, "y": 0}, {"type": "position", "time": 184800, "x": 0, "y": 0}, {"type": "position", "time": 184847, "x": 0, "y": 0}, {"type": "position", "time": 184893, "x": 0, "y": 0}, {"type": "position", "time": 184956, "x": 0, "y": 0}, {"type": "position", "time": 185003, "x": 0, "y": 0}, {"type": "position", "time": 185049, "x": 0, "y": 0}, {"type": "position", "time": 185096, "x": 0, "y": 0}, {"type": "position", "time": 185145, "x": 0, "y": 0}, {"type": "position", "time": 185205, "x": 0, "y": 0}, {"type": "position", "time": 185251, "x": 0, "y": 0}, {"type": "position", "time": 185298, "x": 0, "y": 0}, {"type": "position", "time": 185345, "x": 0, "y": 0}, {"type": "position", "time": 185402, "x": 0, "y": 0}, {"type": "position", "time": 185449, "x": 0, "y": 0}, {"type": "position", "time": 185496, "x": 0, "y": 0}, {"type": "position", "time": 185543, "x": 0, "y": 0}, {"type": "position", "time": 185605, "x": 0, "y": 0}, {"type": "position", "time": 185653, "x": 0, "y": 0}, {"type": "position", "time": 185699, "x": 0, "y": 0}, {"type": "position", "time": 185746, "x": 0, "y": 0}, {"type": "position", "time": 185793, "x": 0, "y": 0}, {"type": "position", "time": 185855, "x": 0, "y": 0}, {"type": "position", "time": 185902, "x": 0, "y": 0}, {"type": "position", "time": 185949, "x": 0, "y": 0}, {"type": "position", "time": 185996, "x": 0, "y": 0}, {"type": "position", "time": 186043, "x": 0, "y": 0}, {"type": "position", "time": 186105, "x": 0, "y": 0}, {"type": "position", "time": 186155, "x": 0, "y": 0}, {"type": "position", "time": 186202, "x": 0, "y": 0}, {"type": "position", "time": 186249, "x": 0, "y": 0}, {"type": "position", "time": 186296, "x": 0, "y": 0}, {"type": "position", "time": 186342, "x": 0, "y": 0}, {"type": "position", "time": 186393, "x": 0, "y": 0}, {"type": "position", "time": 186456, "x": 0, "y": 0}, {"type": "position", "time": 186503, "x": 0, "y": 0}, {"type": "position", "time": 186550, "x": 0, "y": 0}, {"type": "position", "time": 186596, "x": 0, "y": 0}, {"type": "position", "time": 186643, "x": 0, "y": 0}, {"type": "position", "time": 186693, "x": 0, "y": 0}, {"type": "position", "time": 186741, "x": 0, "y": 0}, {"type": "position", "time": 186807, "x": 0, "y": 0}, {"type": "position", "time": 186854, "x": 0, "y": 0}, {"type": "position", "time": 186901, "x": 0, "y": 0}, {"type": "position", "time": 186948, "x": 0, "y": 0}, {"type": "position", "time": 186995, "x": 0, "y": 0}, {"type": "position", "time": 187058, "x": 0, "y": 0}, {"type": "position", "time": 187104, "x": 0, "y": 0}, {"type": "position", "time": 187151, "x": 0, "y": 0}, {"type": "position", "time": 187198, "x": 0, "y": 0}, {"type": "position", "time": 187245, "x": 0, "y": 0}, {"type": "position", "time": 187308, "x": 0, "y": 0}, {"type": "position", "time": 187355, "x": 0, "y": 0}, {"type": "position", "time": 187394, "x": 0, "y": 0}, {"type": "position", "time": 187434, "x": 0, "y": 0}, {"type": "position", "time": 187495, "x": 0, "y": 0}, {"type": "position", "time": 187543, "x": 0, "y": 0}, {"type": "position", "time": 187602, "x": 0, "y": 0}, {"type": "position", "time": 187649, "x": 0, "y": 0}, {"type": "position", "time": 187696, "x": 0, "y": 0}, {"type": "position", "time": 187758, "x": 0, "y": 0}, {"type": "position", "time": 187805, "x": 0, "y": 0}, {"type": "position", "time": 187852, "x": 0, "y": 0}, {"type": "position", "time": 187899, "x": 0, "y": 0}, {"type": "position", "time": 187946, "x": 0, "y": 0}, {"type": "position", "time": 188008, "x": 0, "y": 0}, {"type": "position", "time": 188055, "x": 0, "y": 0}, {"type": "position", "time": 188102, "x": 0, "y": 0}, {"type": "position", "time": 188149, "x": 0, "y": 0}, {"type": "position", "time": 188196, "x": 0, "y": 0}, {"type": "position", "time": 188242, "x": 0, "y": 0}, {"type": "position", "time": 188294, "x": 0, "y": 0}, {"type": "position", "time": 188342, "x": 0, "y": 0}, {"type": "position", "time": 188394, "x": 0, "y": 0}, {"type": "position", "time": 188456, "x": 0, "y": 0}, {"type": "position", "time": 188503, "x": 0, "y": 0}, {"type": "position", "time": 188550, "x": 0, "y": 0}, {"type": "position", "time": 188596, "x": 0, "y": 0}, {"type": "position", "time": 188643, "x": 0, "y": 0}, {"type": "position", "time": 188706, "x": 0, "y": 0}, {"type": "position", "time": 188753, "x": 0, "y": 0}, {"type": "position", "time": 188800, "x": 0, "y": 0}, {"type": "position", "time": 188847, "x": 0, "y": 0}, {"type": "position", "time": 188893, "x": 0, "y": 0}, {"type": "position", "time": 188956, "x": 0, "y": 0}, {"type": "position", "time": 189002, "x": 0, "y": 0}, {"type": "position", "time": 189050, "x": 0, "y": 0}, {"type": "position", "time": 189103, "x": 0, "y": 0}, {"type": "position", "time": 189150, "x": 0, "y": 0}, {"type": "position", "time": 189192, "x": 0, "y": 0}, {"type": "position", "time": 189255, "x": 0, "y": 0}, {"type": "position", "time": 189302, "x": 0, "y": 0}, {"type": "position", "time": 189349, "x": 0, "y": 0}, {"type": "position", "time": 189396, "x": 0, "y": 0}, {"type": "position", "time": 189457, "x": 0, "y": 0}, {"type": "position", "time": 189504, "x": 0, "y": 0}, {"type": "position", "time": 189551, "x": 0, "y": 0}, {"type": "position", "time": 189598, "x": 0, "y": 0}, {"type": "position", "time": 189644, "x": 0, "y": 0}, {"type": "position", "time": 189707, "x": 0, "y": 0}, {"type": "position", "time": 189754, "x": 0, "y": 0}, {"type": "position", "time": 189801, "x": 0, "y": 0}, {"type": "position", "time": 189848, "x": 0, "y": 0}, {"type": "position", "time": 189894, "x": 0, "y": 0}, {"type": "position", "time": 189957, "x": 0, "y": 0}, {"type": "position", "time": 190004, "x": 0, "y": 0}, {"type": "position", "time": 190051, "x": 0, "y": 0}, {"type": "position", "time": 190098, "x": 0, "y": 0}, {"type": "position", "time": 190145, "x": 0, "y": 0}, {"type": "position", "time": 190238, "x": 0, "y": 0}, {"type": "position", "time": 190293, "x": 0, "y": 0}, {"type": "position", "time": 190345, "x": 0, "y": 0}, {"type": "position", "time": 190393, "x": 0, "y": 0}, {"type": "position", "time": 190443, "x": 0, "y": 0}, {"type": "position", "time": 190494, "x": 0, "y": 0}, {"type": "position", "time": 190542, "x": 0, "y": 0}, {"type": "position", "time": 190594, "x": 0, "y": 0}, {"type": "position", "time": 190647, "x": 0, "y": 0}, {"type": "position", "time": 190694, "x": 0, "y": 0}, {"type": "position", "time": 190756, "x": 0, "y": 0}, {"type": "position", "time": 190803, "x": 0, "y": 0}, {"type": "position", "time": 190850, "x": 0, "y": 0}, {"type": "position", "time": 190897, "x": 0, "y": 0}, {"type": "position", "time": 190944, "x": 0, "y": 0}, {"type": "position", "time": 191007, "x": 0, "y": 0}, {"type": "position", "time": 191053, "x": 0, "y": 0}, {"type": "position", "time": 191100, "x": 0, "y": 0}, {"type": "position", "time": 191147, "x": 0, "y": 0}, {"type": "position", "time": 191194, "x": 0, "y": 0}, {"type": "position", "time": 191339, "x": 0, "y": 0}, {"type": "position", "time": 191347, "x": 0, "y": 0}, {"type": "position", "time": 191393, "x": 0, "y": 0}, {"type": "position", "time": 191445, "x": 0, "y": 0}, {"type": "position", "time": 191495, "x": 0, "y": 0}, {"type": "position", "time": 191542, "x": 0, "y": 0}, {"type": "position", "time": 191591, "x": 0, "y": 0}, {"type": "position", "time": 191640, "x": 0, "y": 0}, {"type": "position", "time": 191687, "x": 0, "y": 0}, {"type": "position", "time": 191736, "x": 0, "y": 0}, {"type": "position", "time": 191799, "x": 0, "y": 0}, {"type": "position", "time": 191845, "x": 0, "y": 0}, {"type": "position", "time": 191895, "x": 0, "y": 0}, {"type": "position", "time": 191942, "x": 0, "y": 0}, {"type": "position", "time": 191996, "x": 0, "y": 0}, {"type": "position", "time": 192044, "x": 0, "y": 0}, {"type": "position", "time": 192096, "x": 0, "y": 0}, {"type": "position", "time": 192142, "x": 0, "y": 0}, {"type": "position", "time": 192253, "x": 0, "y": 0}, {"type": "position", "time": 192293, "x": 0, "y": 0}, {"type": "position", "time": 192343, "x": 0, "y": 0}, {"type": "position", "time": 192394, "x": 0, "y": 0}, {"type": "position", "time": 192443, "x": 0, "y": 0}, {"type": "position", "time": 192493, "x": 0, "y": 0}, {"type": "position", "time": 192543, "x": 0, "y": 0}, {"type": "position", "time": 192594, "x": 0, "y": 0}, {"type": "position", "time": 192644, "x": 0, "y": 0}, {"type": "position", "time": 192695, "x": 0, "y": 0}, {"type": "position", "time": 192742, "x": 0, "y": 0}, {"type": "position", "time": 192805, "x": 0, "y": 0}, {"type": "position", "time": 192852, "x": 0, "y": 0}, {"type": "position", "time": 192898, "x": 0, "y": 0}, {"type": "position", "time": 192945, "x": 0, "y": 0}, {"type": "position", "time": 193008, "x": 0, "y": 0}, {"type": "position", "time": 193055, "x": 0, "y": 0}, {"type": "position", "time": 193102, "x": 0, "y": 0}, {"type": "position", "time": 193148, "x": 0, "y": 0}, {"type": "position", "time": 193195, "x": 0, "y": 0}, {"type": "position", "time": 193242, "x": 0, "y": 0}, {"type": "position", "time": 193305, "x": 0, "y": 0}, {"type": "position", "time": 193352, "x": 0, "y": 0}, {"type": "position", "time": 193398, "x": 0, "y": 0}, {"type": "position", "time": 193451, "x": 0, "y": 0}, {"type": "position", "time": 193498, "x": 0, "y": 0}, {"type": "position", "time": 193546, "x": 0, "y": 0}, {"type": "position", "time": 193596, "x": 0, "y": 0}, {"type": "position", "time": 193652, "x": 0, "y": 0}, {"type": "position", "time": 193699, "x": 0, "y": 0}, {"type": "position", "time": 193746, "x": 0, "y": 0}, {"type": "position", "time": 193808, "x": 0, "y": 0}, {"type": "position", "time": 193857, "x": 0, "y": 0}, {"type": "position", "time": 193908, "x": 0, "y": 0}, {"type": "position", "time": 193946, "x": 0, "y": 0}, {"type": "position", "time": 194008, "x": 0, "y": 0}, {"type": "position", "time": 194055, "x": 0, "y": 0}, {"type": "position", "time": 194102, "x": 0, "y": 0}, {"type": "position", "time": 194149, "x": 0, "y": 0}, {"type": "position", "time": 194196, "x": 0, "y": 0}, {"type": "position", "time": 194258, "x": 0, "y": 0}, {"type": "position", "time": 194305, "x": 0, "y": 0}, {"type": "position", "time": 194352, "x": 0, "y": 0}, {"type": "position", "time": 194399, "x": 0, "y": 0}, {"type": "position", "time": 194451, "x": 0, "y": 0}, {"type": "position", "time": 194498, "x": 0, "y": 0}, {"type": "position", "time": 194545, "x": 0, "y": 0}, {"type": "position", "time": 194608, "x": 0, "y": 0}, {"type": "position", "time": 194654, "x": 0, "y": 0}, {"type": "position", "time": 194701, "x": 0, "y": 0}, {"type": "position", "time": 194748, "x": 0, "y": 0}, {"type": "position", "time": 194795, "x": 0, "y": 0}, {"type": "position", "time": 194857, "x": 0, "y": 0}, {"type": "position", "time": 194904, "x": 0, "y": 0}, {"type": "position", "time": 194951, "x": 0, "y": 0}, {"type": "position", "time": 194998, "x": 0, "y": 0}, {"type": "position", "time": 195045, "x": 0, "y": 0}, {"type": "position", "time": 195107, "x": 0, "y": 0}, {"type": "position", "time": 195248, "x": 0, "y": 0}, {"type": "click", "time": 195344, "x": null, "y": 0.4766666666666667}, {"type": "position", "time": 195428, "x": null, "y": 0.4766666666666667}, {"type": "position", "time": 195452, "x": null, "y": 0.4766666666666667}, {"type": "position", "time": 195496, "x": null, "y": 0.4766666666666667}, {"type": "position", "time": 195545, "x": null, "y": 0.4766666666666667}, {"type": "position", "time": 195607, "x": null, "y": 0.4766666666666667}, {"type": "position", "time": 195654, "x": null, "y": 0.4766666666666667}, {"type": "position", "time": 195701, "x": null, "y": 0.4766666666666667}, {"type": "position", "time": 195748, "x": null, "y": 0.4766666666666667}, {"type": "position", "time": 195798, "x": null, "y": 0.4766666666666667}, {"type": "position", "time": 195847, "x": null, "y": 0.4766666666666667}, {"type": "position", "time": 195893, "x": null, "y": 0.4766666666666667}, {"type": "position", "time": 195956, "x": null, "y": 0.4766666666666667}, {"type": "position", "time": 196003, "x": null, "y": 0.4766666666666667}, {"type": "position", "time": 196050, "x": null, "y": 0.4766666666666667}, {"type": "position", "time": 196097, "x": null, "y": 0.4766666666666667}, {"type": "position", "time": 196143, "x": null, "y": 0.4766666666666667}, {"type": "position", "time": 196206, "x": null, "y": 0.4766666666666667}, {"type": "position", "time": 196253, "x": null, "y": 0.4766666666666667}, {"type": "position", "time": 196300, "x": null, "y": 0.4766666666666667}, {"type": "position", "time": 196347, "x": null, "y": 0.4766666666666667}, {"type": "position", "time": 196393, "x": null, "y": 0.4766666666666667}, {"type": "position", "time": 196541, "x": null, "y": 0.4766666666666667}, {"type": "position", "time": 196541, "x": null, "y": 0.4766666666666667}, {"type": "position", "time": 196593, "x": null, "y": 0.4766666666666667}, {"type": "position", "time": 196641, "x": null, "y": 0.4766666666666667}, {"type": "position", "time": 196688, "x": null, "y": 0.4766666666666667}, {"type": "position", "time": 196735, "x": null, "y": 0.4766666666666667}, {"type": "position", "time": 196798, "x": null, "y": 0.4766666666666667}, {"type": "position", "time": 196845, "x": null, "y": 0.4766666666666667}, {"type": "position", "time": 196894, "x": null, "y": 0.4766666666666667}, {"type": "position", "time": 196941, "x": null, "y": 0.4766666666666667}, {"type": "position", "time": 196988, "x": null, "y": 0.4766666666666667}, {"type": "position", "time": 197050, "x": null, "y": 0.4766666666666667}, {"type": "position", "time": 197088, "x": null, "y": 0.4766666666666667}, {"type": "position", "time": 197135, "x": null, "y": 0.4766666666666667}, {"type": "position", "time": 197182, "x": null, "y": 0.4766666666666667}, {"type": "position", "time": 197244, "x": null, "y": 0.4766666666666667}, {"type": "position", "time": 197307, "x": null, "y": 0.4766666666666667}, {"type": "position", "time": 197349, "x": null, "y": 0.4766666666666667}, {"type": "position", "time": 197395, "x": null, "y": 0.4766666666666667}, {"type": "position", "time": 197446, "x": null, "y": 0.4766666666666667}, {"type": "position", "time": 197500, "x": null, "y": 0.4766666666666667}, {"type": "position", "time": 197546, "x": null, "y": 0.4766666666666667}, {"type": "position", "time": 197600, "x": null, "y": 0.4766666666666667}, {"type": "position", "time": 197647, "x": null, "y": 0.4766666666666667}, {"type": "position", "time": 197694, "x": null, "y": 0.4766666666666667}, {"type": "position", "time": 197756, "x": null, "y": 0.4766666666666667}, {"type": "position", "time": 197850, "x": null, "y": 0.4766666666666667}, {"type": "position", "time": 197902, "x": null, "y": 0.4766666666666667}, {"type": "position", "time": 197948, "x": null, "y": 0.4766666666666667}, {"type": "position", "time": 197996, "x": null, "y": 0.4766666666666667}, {"type": "position", "time": 198055, "x": null, "y": 0.4766666666666667}, {"type": "position", "time": 198099, "x": null, "y": 0.4766666666666667}, {"type": "position", "time": 198150, "x": null, "y": 0.4766666666666667}, {"type": "position", "time": 198200, "x": null, "y": 0.4766666666666667}, {"type": "position", "time": 198253, "x": null, "y": 0.4766666666666667}, {"type": "position", "time": 198299, "x": null, "y": 0.4766666666666667}, {"type": "position", "time": 198344, "x": null, "y": 0.4766666666666667}, {"type": "position", "time": 198393, "x": null, "y": 0.4766666666666667}, {"type": "position", "time": 198445, "x": null, "y": 0.4766666666666667}, {"type": "position", "time": 198495, "x": null, "y": 0.4766666666666667}, {"type": "position", "time": 198547, "x": null, "y": 0.4766666666666667}, {"type": "position", "time": 198594, "x": null, "y": 0.4766666666666667}, {"type": "position", "time": 198657, "x": null, "y": 0.4766666666666667}, {"type": "position", "time": 198704, "x": null, "y": 0.4766666666666667}, {"type": "position", "time": 198751, "x": null, "y": 0.4766666666666667}, {"type": "position", "time": 198798, "x": null, "y": 0.4766666666666667}, {"type": "position", "time": 198845, "x": null, "y": 0.4766666666666667}, {"type": "position", "time": 198907, "x": null, "y": 0.4766666666666667}, {"type": "position", "time": 198954, "x": null, "y": 0.4766666666666667}, {"type": "position", "time": 199001, "x": null, "y": 0.4766666666666667}, {"type": "position", "time": 199048, "x": null, "y": 0.4766666666666667}, {"type": "position", "time": 199095, "x": null, "y": 0.4766666666666667}, {"type": "position", "time": 199157, "x": null, "y": 0.4766666666666667}, {"type": "position", "time": 199194, "x": null, "y": 0.4766666666666667}, {"type": "position", "time": 199256, "x": null, "y": 0.4766666666666667}, {"type": "position", "time": 199303, "x": null, "y": 0.4766666666666667}, {"type": "position", "time": 199350, "x": null, "y": 0.4766666666666667}, {"type": "position", "time": 199397, "x": null, "y": 0.4766666666666667}, {"type": "position", "time": 199444, "x": null, "y": 0.4766666666666667}, {"type": "position", "time": 199509, "x": null, "y": 0.4766666666666667}, {"type": "position", "time": 199556, "x": null, "y": 0.4766666666666667}, {"type": "position", "time": 199603, "x": null, "y": 0.4766666666666667}, {"type": "position", "time": 199649, "x": null, "y": 0.4766666666666667}, {"type": "position", "time": 199696, "x": null, "y": 0.4766666666666667}, {"type": "position", "time": 199743, "x": null, "y": 0.4766666666666667}, {"type": "position", "time": 199806, "x": null, "y": 0.4766666666666667}, {"type": "position", "time": 199852, "x": null, "y": 0.4766666666666667}, {"type": "position", "time": 199899, "x": null, "y": 0.4766666666666667}, {"type": "position", "time": 199946, "x": null, "y": 0.4766666666666667}, {"type": "position", "time": 199993, "x": null, "y": 0.4766666666666667}, {"type": "position", "time": 200056, "x": null, "y": 0.4766666666666667}, {"type": "position", "time": 200102, "x": null, "y": 0.4766666666666667}, {"type": "position", "time": 200149, "x": null, "y": 0.4766666666666667}, {"type": "position", "time": 200196, "x": null, "y": 0.4766666666666667}, {"type": "position", "time": 200243, "x": null, "y": 0.4766666666666667}, {"type": "position", "time": 200306, "x": null, "y": 0.4766666666666667}, {"type": "position", "time": 200352, "x": null, "y": 0.4766666666666667}, {"type": "position", "time": 200400, "x": null, "y": 0.4766666666666667}, {"type": "position", "time": 200446, "x": null, "y": 0.4766666666666667}, {"type": "position", "time": 200495, "x": null, "y": 0.4766666666666667}, {"type": "position", "time": 200558, "x": null, "y": 0.4766666666666667}, {"type": "position", "time": 200605, "x": null, "y": 0.4766666666666667}, {"type": "position", "time": 200651, "x": null, "y": 0.4766666666666667}, {"type": "position", "time": 200698, "x": null, "y": 0.4766666666666667}, {"type": "position", "time": 200745, "x": null, "y": 0.4766666666666667}, {"type": "position", "time": 200808, "x": null, "y": 0.4766666666666667}, {"type": "position", "time": 200855, "x": null, "y": 0.4766666666666667}, {"type": "position", "time": 200901, "x": null, "y": 0.4766666666666667}, {"type": "position", "time": 200948, "x": null, "y": 0.4766666666666667}, {"type": "position", "time": 200995, "x": null, "y": 0.4766666666666667}, {"type": "position", "time": 201058, "x": null, "y": 0.4766666666666667}, {"type": "position", "time": 201105, "x": null, "y": 0.4766666666666667}, {"type": "position", "time": 201152, "x": null, "y": 0.4766666666666667}, {"type": "position", "time": 201198, "x": null, "y": 0.4766666666666667}, {"type": "position", "time": 201245, "x": null, "y": 0.4766666666666667}, {"type": "position", "time": 201308, "x": null, "y": 0.4766666666666667}, {"type": "position", "time": 201355, "x": null, "y": 0.4766666666666667}, {"type": "position", "time": 201402, "x": null, "y": 0.4766666666666667}, {"type": "position", "time": 201448, "x": null, "y": 0.4766666666666667}, {"type": "position", "time": 201507, "x": null, "y": 0.4766666666666667}, {"type": "position", "time": 201554, "x": null, "y": 0.4766666666666667}, {"type": "position", "time": 201600, "x": null, "y": 0.4766666666666667}, {"type": "position", "time": 201647, "x": null, "y": 0.4766666666666667}, {"type": "position", "time": 201694, "x": null, "y": 0.4766666666666667}, {"type": "position", "time": 201757, "x": null, "y": 0.4766666666666667}, {"type": "position", "time": 201804, "x": null, "y": 0.4766666666666667}, {"type": "position", "time": 201850, "x": null, "y": 0.4766666666666667}, {"type": "position", "time": 201897, "x": null, "y": 0.4766666666666667}, {"type": "position", "time": 201944, "x": null, "y": 0.4766666666666667}, {"type": "position", "time": 202007, "x": null, "y": 0.4766666666666667}, {"type": "position", "time": 202054, "x": null, "y": 0.4766666666666667}, {"type": "position", "time": 202100, "x": null, "y": 0.4766666666666667}, {"type": "position", "time": 202147, "x": null, "y": 0.4766666666666667}, {"type": "position", "time": 202194, "x": null, "y": 0.4766666666666667}, {"type": "position", "time": 202257, "x": null, "y": 0.4766666666666667}, {"type": "position", "time": 202304, "x": null, "y": 0.4766666666666667}, {"type": "position", "time": 202351, "x": null, "y": 0.4766666666666667}, {"type": "position", "time": 202397, "x": null, "y": 0.4766666666666667}, {"type": "position", "time": 202444, "x": null, "y": 0.4766666666666667}, {"type": "position", "time": 202494, "x": null, "y": 0.4766666666666667}, {"type": "position", "time": 202557, "x": null, "y": 0.4766666666666667}, {"type": "position", "time": 202604, "x": null, "y": 0.4766666666666667}, {"type": "position", "time": 202651, "x": null, "y": 0.4766666666666667}, {"type": "position", "time": 202704, "x": null, "y": 0.4766666666666667}, {"type": "position", "time": 202752, "x": null, "y": 0.4766666666666667}, {"type": "position", "time": 202799, "x": null, "y": 0.4766666666666667}, {"type": "position", "time": 202846, "x": null, "y": 0.4766666666666667}, {"type": "position", "time": 202893, "x": null, "y": 0.4766666666666667}, {"type": "position", "time": 202955, "x": null, "y": 0.4766666666666667}, {"type": "position", "time": 203002, "x": null, "y": 0.4766666666666667}, {"type": "position", "time": 203049, "x": null, "y": 0.4766666666666667}, {"type": "position", "time": 203096, "x": null, "y": 0.4766666666666667}, {"type": "position", "time": 203143, "x": null, "y": 0.4766666666666667}, {"type": "position", "time": 203205, "x": null, "y": 0.4766666666666667}, {"type": "position", "time": 203252, "x": null, "y": 0.4766666666666667}, {"type": "position", "time": 203303, "x": null, "y": 0.4766666666666667}, {"type": "position", "time": 203350, "x": null, "y": 0.4766666666666667}, {"type": "position", "time": 203397, "x": null, "y": 0.4766666666666667}, {"type": "position", "time": 203443, "x": null, "y": 0.4766666666666667}, {"type": "position", "time": 203496, "x": null, "y": 0.4766666666666667}, {"type": "position", "time": 203558, "x": null, "y": 0.4766666666666667}, {"type": "position", "time": 203605, "x": null, "y": 0.4766666666666667}, {"type": "position", "time": 203652, "x": null, "y": 0.4766666666666667}, {"type": "position", "time": 203699, "x": null, "y": 0.4766666666666667}, {"type": "position", "time": 203746, "x": null, "y": 0.4766666666666667}, {"type": "position", "time": 203808, "x": null, "y": 0.4766666666666667}, {"type": "position", "time": 203855, "x": null, "y": 0.4766666666666667}, {"type": "position", "time": 203902, "x": null, "y": 0.4766666666666667}, {"type": "position", "time": 203949, "x": null, "y": 0.4766666666666667}, {"type": "position", "time": 203996, "x": null, "y": 0.4766666666666667}, {"type": "position", "time": 204058, "x": null, "y": 0.4766666666666667}, {"type": "position", "time": 204105, "x": null, "y": 0.4766666666666667}, {"type": "position", "time": 204152, "x": null, "y": 0.4766666666666667}, {"type": "position", "time": 204199, "x": null, "y": 0.4766666666666667}, {"type": "position", "time": 204246, "x": null, "y": 0.4766666666666667}, {"type": "position", "time": 204308, "x": null, "y": 0.4766666666666667}, {"type": "position", "time": 204355, "x": null, "y": 0.4766666666666667}, {"type": "position", "time": 204402, "x": null, "y": 0.4766666666666667}, {"type": "position", "time": 204448, "x": null, "y": 0.4766666666666667}, {"type": "position", "time": 204496, "x": null, "y": 0.4766666666666667}, {"type": "position", "time": 204556, "x": null, "y": 0.4766666666666667}, {"type": "position", "time": 204603, "x": null, "y": 0.4766666666666667}, {"type": "position", "time": 204650, "x": null, "y": 0.4766666666666667}, {"type": "position", "time": 204697, "x": null, "y": 0.4766666666666667}, {"type": "position", "time": 204744, "x": null, "y": 0.4766666666666667}, {"type": "position", "time": 204806, "x": null, "y": 0.4766666666666667}, {"type": "position", "time": 204853, "x": null, "y": 0.4766666666666667}, {"type": "position", "time": 204900, "x": null, "y": 0.4766666666666667}, {"type": "position", "time": 204945, "x": null, "y": 0.35833333333333334}, {"type": "position", "time": 205005, "x": null, "y": 0.35833333333333334}, {"type": "position", "time": 205052, "x": null, "y": 0.35833333333333334}, {"type": "position", "time": 205099, "x": null, "y": 0.35833333333333334}, {"type": "position", "time": 205146, "x": null, "y": 0.35833333333333334}, {"type": "position", "time": 205208, "x": null, "y": 0.35833333333333334}, {"type": "position", "time": 205255, "x": null, "y": 0.35833333333333334}, {"type": "position", "time": 205302, "x": null, "y": 0.35833333333333334}, {"type": "position", "time": 205349, "x": null, "y": 0.35833333333333334}, {"type": "position", "time": 205396, "x": null, "y": 0.35833333333333334}, {"type": "position", "time": 205451, "x": null, "y": 0.35833333333333334}, {"type": "position", "time": 205495, "x": null, "y": 0.35833333333333334}, {"type": "position", "time": 205554, "x": null, "y": 0.35833333333333334}, {"type": "position", "time": 205601, "x": null, "y": 0.35833333333333334}, {"type": "position", "time": 205648, "x": null, "y": 0.35833333333333334}, {"type": "position", "time": 205695, "x": null, "y": 0.35833333333333334}, {"type": "position", "time": 205758, "x": null, "y": 0.35833333333333334}, {"type": "position", "time": 205804, "x": null, "y": 0.35833333333333334}, {"type": "position", "time": 205852, "x": null, "y": 0.35833333333333334}, {"type": "position", "time": 205898, "x": null, "y": 0.35833333333333334}, {"type": "position", "time": 205945, "x": null, "y": 0.35833333333333334}, {"type": "position", "time": 206008, "x": null, "y": 0.35833333333333334}, {"type": "position", "time": 206054, "x": null, "y": 0.35833333333333334}, {"type": "position", "time": 206101, "x": null, "y": 0.35833333333333334}, {"type": "position", "time": 206148, "x": null, "y": 0.35833333333333334}, {"type": "position", "time": 206195, "x": null, "y": 0.35833333333333334}, {"type": "position", "time": 206258, "x": null, "y": 0.35833333333333334}, {"type": "position", "time": 206305, "x": null, "y": 0.35833333333333334}, {"type": "position", "time": 206352, "x": null, "y": 0.35833333333333334}, {"type": "position", "time": 206398, "x": null, "y": 0.35833333333333334}, {"type": "position", "time": 206445, "x": null, "y": 0.35833333333333334}, {"type": "position", "time": 206492, "x": null, "y": 0.35833333333333334}, {"type": "position", "time": 206554, "x": null, "y": 0.35833333333333334}, {"type": "position", "time": 206601, "x": null, "y": 0.35833333333333334}, {"type": "position", "time": 206648, "x": null, "y": 0.35833333333333334}, {"type": "position", "time": 206695, "x": null, "y": 0.35833333333333334}, {"type": "position", "time": 206757, "x": null, "y": 0.35833333333333334}, {"type": "position", "time": 206804, "x": null, "y": 0.35833333333333334}, {"type": "position", "time": 206851, "x": null, "y": 0.35833333333333334}, {"type": "position", "time": 206898, "x": null, "y": 0.35833333333333334}, {"type": "position", "time": 206945, "x": null, "y": 0.35833333333333334}, {"type": "position", "time": 207007, "x": null, "y": 0.35833333333333334}, {"type": "position", "time": 207054, "x": null, "y": 0.35833333333333334}, {"type": "position", "time": 207101, "x": null, "y": 0.35833333333333334}, {"type": "position", "time": 207149, "x": null, "y": 0.35833333333333334}, {"type": "position", "time": 207196, "x": null, "y": 0.35833333333333334}, {"type": "position", "time": 207258, "x": null, "y": 0.35833333333333334}, {"type": "position", "time": 207398, "x": null, "y": 0.35833333333333334}, {"type": "position", "time": 207539, "x": null, "y": 0.35833333333333334}, {"type": "position", "time": 207544, "x": null, "y": 0.35833333333333334}, {"type": "position", "time": 207601, "x": null, "y": 0.35833333333333334}, {"type": "position", "time": 207648, "x": null, "y": 0.35833333333333334}, {"type": "position", "time": 207698, "x": null, "y": 0.35833333333333334}, {"type": "position", "time": 207745, "x": null, "y": 0.35833333333333334}, {"type": "position", "time": 207808, "x": null, "y": 0.35833333333333334}, {"type": "position", "time": 207855, "x": null, "y": 0.35833333333333334}, {"type": "position", "time": 207901, "x": null, "y": 0.35833333333333334}, {"type": "position", "time": 207933, "x": null, "y": 0.35833333333333334}, {"type": "position", "time": 207998, "x": null, "y": 0.35833333333333334}, {"type": "position", "time": 208029, "x": null, "y": 0.35833333333333334}, {"type": "position", "time": 208092, "x": null, "y": 0.35833333333333334}, {"type": "position", "time": 208139, "x": null, "y": 0.35833333333333334}, {"type": "position", "time": 208186, "x": null, "y": 0.35833333333333334}, {"type": "position", "time": 208235, "x": null, "y": 0.35833333333333334}, {"type": "position", "time": 208298, "x": null, "y": 0.35833333333333334}, {"type": "position", "time": 208345, "x": null, "y": 0.35833333333333334}, {"type": "position", "time": 208408, "x": null, "y": 0.35833333333333334}, {"type": "position", "time": 208454, "x": null, "y": 0.35833333333333334}, {"type": "position", "time": 208501, "x": null, "y": 0.35833333333333334}, {"type": "position", "time": 208549, "x": null, "y": 0.35833333333333334}, {"type": "position", "time": 208597, "x": null, "y": 0.35833333333333334}, {"type": "position", "time": 208652, "x": null, "y": 0.35833333333333334}, {"type": "position", "time": 208699, "x": null, "y": 0.35833333333333334}, {"type": "position", "time": 208746, "x": null, "y": 0.35833333333333334}, {"type": "position", "time": 208808, "x": null, "y": 0.35833333333333334}, {"type": "position", "time": 208855, "x": null, "y": 0.35833333333333334}, {"type": "position", "time": 208902, "x": null, "y": 0.35833333333333334}, {"type": "position", "time": 209027, "x": null, "y": 0.35833333333333334}, {"type": "position", "time": 209047, "x": null, "y": 0.35833333333333334}, {"type": "position", "time": 209188, "x": null, "y": 0.35833333333333334}, {"type": "position", "time": 209196, "x": null, "y": 0.35833333333333334}, {"type": "position", "time": 209243, "x": null, "y": 0.35833333333333334}, {"type": "position", "time": 209306, "x": null, "y": 0.35833333333333334}, {"type": "position", "time": 209353, "x": null, "y": 0.35833333333333334}, {"type": "position", "time": 209400, "x": null, "y": 0.35833333333333334}, {"type": "position", "time": 209446, "x": null, "y": 0.35833333333333334}, {"type": "position", "time": 209493, "x": null, "y": 0.35833333333333334}, {"type": "position", "time": 209540, "x": null, "y": 0.35833333333333334}, {"type": "position", "time": 209596, "x": null, "y": 0.35833333333333334}, {"type": "position", "time": 209647, "x": null, "y": 0.35833333333333334}, {"type": "position", "time": 209694, "x": null, "y": 0.35833333333333334}, {"type": "position", "time": 209744, "x": null, "y": 0.35833333333333334}, {"type": "position", "time": 209796, "x": null, "y": 0.35833333333333334}, {"type": "position", "time": 209858, "x": null, "y": 0.35833333333333334}, {"type": "position", "time": 209905, "x": null, "y": 0.35833333333333334}, {"type": "position", "time": 209952, "x": null, "y": 0.35833333333333334}, {"type": "position", "time": 209999, "x": null, "y": 0.35833333333333334}, {"type": "position", "time": 210045, "x": null, "y": 0.35833333333333334}, {"type": "position", "time": 210217, "x": null, "y": 0.35833333333333334}, {"type": "position", "time": 210245, "x": null, "y": 0.35833333333333334}, {"type": "position", "time": 210355, "x": null, "y": 0.35833333333333334}, {"type": "slider", "time": 210410, "value": 0.2}, {"type": "click", "time": 210442, "x": null, "y": 0.56}, {"type": "position", "time": 210450, "x": null, "y": 0.56}, {"type": "position", "time": 210494, "x": null, "y": 0.56}, {"type": "position", "time": 210551, "x": null, "y": 0.56}, {"type": "position", "time": 210596, "x": null, "y": 0.56}, {"type": "position", "time": 210648, "x": null, "y": 0.56}, {"type": "position", "time": 210695, "x": null, "y": 0.56}, {"type": "position", "time": 210757, "x": null, "y": 0.56}, {"type": "position", "time": 210804, "x": null, "y": 0.56}, {"type": "position", "time": 210851, "x": null, "y": 0.56}, {"type": "position", "time": 210898, "x": null, "y": 0.56}, {"type": "position", "time": 210945, "x": null, "y": 0.56}, {"type": "position", "time": 211007, "x": null, "y": 0.56}, {"type": "position", "time": 211054, "x": null, "y": 0.56}, {"type": "position", "time": 211101, "x": null, "y": 0.56}, {"type": "position", "time": 211148, "x": null, "y": 0.56}, {"type": "position", "time": 211195, "x": null, "y": 0.56}, {"type": "position", "time": 211257, "x": null, "y": 0.56}, {"type": "position", "time": 211383, "x": null, "y": 0.56}, {"type": "position", "time": 211394, "x": null, "y": 0.56}, {"type": "position", "time": 211448, "x": null, "y": 0.56}, {"type": "position", "time": 211497, "x": null, "y": 0.56}, {"type": "position", "time": 211544, "x": null, "y": 0.56}, {"type": "position", "time": 211593, "x": null, "y": 0.56}, {"type": "position", "time": 211634, "x": null, "y": 0.56}, {"type": "position", "time": 211697, "x": null, "y": 0.56}, {"type": "position", "time": 211743, "x": null, "y": 0.56}, {"type": "position", "time": 211806, "x": null, "y": 0.56}, {"type": "position", "time": 211853, "x": null, "y": 0.56}, {"type": "position", "time": 211900, "x": null, "y": 0.56}, {"type": "position", "time": 211947, "x": null, "y": 0.56}, {"type": "position", "time": 211994, "x": null, "y": 0.56}, {"type": "position", "time": 212056, "x": null, "y": 0.56}, {"type": "position", "time": 212103, "x": null, "y": 0.56}, {"type": "position", "time": 212150, "x": null, "y": 0.56}, {"type": "position", "time": 212275, "x": null, "y": 0.56}, {"type": "position", "time": 212296, "x": null, "y": 0.56}, {"type": "position", "time": 212343, "x": null, "y": 0.56}, {"type": "position", "time": 212390, "x": null, "y": 0.56}, {"type": "position", "time": 212437, "x": null, "y": 0.56}, {"type": "position", "time": 212499, "x": null, "y": 0.56}, {"type": "position", "time": 212545, "x": null, "y": 0.56}, {"type": "position", "time": 212595, "x": null, "y": 0.56}, {"type": "position", "time": 212647, "x": null, "y": 0.56}, {"type": "position", "time": 212694, "x": null, "y": 0.56}, {"type": "position", "time": 212756, "x": null, "y": 0.56}, {"type": "position", "time": 212803, "x": null, "y": 0.56}, {"type": "position", "time": 212850, "x": null, "y": 0.56}, {"type": "position", "time": 212897, "x": null, "y": 0.56}, {"type": "position", "time": 212944, "x": null, "y": 0.56}, {"type": "position", "time": 213006, "x": null, "y": 0.56}, {"type": "position", "time": 213053, "x": null, "y": 0.56}, {"type": "position", "time": 213100, "x": null, "y": 0.56}, {"type": "position", "time": 213259, "x": null, "y": 0.56}, {"type": "position", "time": 213306, "x": null, "y": 0.56}, {"type": "slider", "time": 213332, "value": 0.63}, {"type": "click", "time": 213336, "x": null, "y": 0.5683333333333334}, {"type": "position", "time": 213344, "x": null, "y": 0.5683333333333334}, {"type": "position", "time": 213394, "x": null, "y": 0.5683333333333334}, {"type": "position", "time": 213444, "x": null, "y": 0.5683333333333334}, {"type": "position", "time": 213494, "x": null, "y": 0.5683333333333334}, {"type": "position", "time": 213543, "x": null, "y": 0.5683333333333334}, {"type": "position", "time": 213596, "x": null, "y": 0.5683333333333334}, {"type": "position", "time": 213649, "x": null, "y": 0.5683333333333334}, {"type": "position", "time": 213696, "x": null, "y": 0.5683333333333334}, {"type": "position", "time": 213758, "x": null, "y": 0.5683333333333334}, {"type": "position", "time": 213805, "x": null, "y": 0.5683333333333334}, {"type": "position", "time": 213852, "x": null, "y": 0.5683333333333334}, {"type": "position", "time": 213899, "x": null, "y": 0.5683333333333334}, {"type": "position", "time": 213945, "x": null, "y": 0.5683333333333334}, {"type": "position", "time": 214102, "x": null, "y": 0.5683333333333334}, {"type": "slider", "time": 214150, "value": 0.75}, {"type": "click", "time": 214154, "x": null, "y": 0.5583333333333333}, {"type": "position", "time": 214162, "x": null, "y": 0.5583333333333333}, {"type": "position", "time": 214193, "x": null, "y": 0.5583333333333333}, {"type": "position", "time": 214245, "x": null, "y": 0.5583333333333333}, {"type": "position", "time": 214304, "x": null, "y": 0.5583333333333333}, {"type": "position", "time": 214351, "x": null, "y": 0.5583333333333333}, {"type": "position", "time": 214397, "x": null, "y": 0.5583333333333333}, {"type": "position", "time": 214444, "x": null, "y": 0.5583333333333333}, {"type": "position", "time": 214507, "x": null, "y": 0.5583333333333333}, {"type": "position", "time": 214547, "x": null, "y": 0.5583333333333333}, {"type": "position", "time": 214593, "x": null, "y": 0.5583333333333333}, {"type": "position", "time": 214648, "x": null, "y": 0.5583333333333333}, {"type": "position", "time": 214696, "x": null, "y": 0.5583333333333333}, {"type": "position", "time": 214758, "x": null, "y": 0.5583333333333333}, {"type": "position", "time": 214805, "x": null, "y": 0.5583333333333333}, {"type": "position", "time": 214852, "x": null, "y": 0.5583333333333333}, {"type": "position", "time": 214899, "x": null, "y": 0.5583333333333333}, {"type": "position", "time": 214946, "x": null, "y": 0.5583333333333333}, {"type": "position", "time": 215008, "x": null, "y": 0.5583333333333333}, {"type": "position", "time": 215055, "x": null, "y": 0.5583333333333333}, {"type": "position", "time": 215102, "x": null, "y": 0.5583333333333333}, {"type": "position", "time": 215149, "x": null, "y": 0.5583333333333333}, {"type": "position", "time": 215195, "x": null, "y": 0.5583333333333333}, {"type": "position", "time": 215258, "x": null, "y": 0.5583333333333333}, {"type": "position", "time": 215305, "x": null, "y": 0.5583333333333333}, {"type": "position", "time": 215352, "x": null, "y": 0.5583333333333333}, {"type": "position", "time": 215399, "x": null, "y": 0.5583333333333333}, {"type": "position", "time": 215446, "x": null, "y": 0.5583333333333333}, {"type": "position", "time": 215508, "x": null, "y": 0.5583333333333333}, {"type": "position", "time": 215555, "x": null, "y": 0.5583333333333333}, {"type": "position", "time": 215603, "x": null, "y": 0.5583333333333333}, {"type": "position", "time": 215643, "x": null, "y": 0.5583333333333333}, {"type": "position", "time": 215699, "x": null, "y": 0.5583333333333333}, {"type": "position", "time": 215746, "x": null, "y": 0.5583333333333333}, {"type": "position", "time": 215808, "x": null, "y": 0.5583333333333333}, {"type": "position", "time": 215855, "x": null, "y": 0.5583333333333333}, {"type": "position", "time": 215902, "x": null, "y": 0.5583333333333333}, {"type": "position", "time": 215949, "x": null, "y": 0.5583333333333333}, {"type": "position", "time": 215996, "x": null, "y": 0.5583333333333333}, {"type": "position", "time": 216056, "x": null, "y": 0.5583333333333333}, {"type": "position", "time": 216102, "x": null, "y": 0.5583333333333333}, {"type": "position", "time": 216149, "x": null, "y": 0.5583333333333333}, {"type": "position", "time": 216196, "x": null, "y": 0.5583333333333333}, {"type": "position", "time": 216259, "x": null, "y": 0.5583333333333333}, {"type": "position", "time": 216309, "x": null, "y": 0.5583333333333333}, {"type": "position", "time": 216356, "x": null, "y": 0.5583333333333333}, {"type": "position", "time": 216403, "x": null, "y": 0.5583333333333333}, {"type": "position", "time": 216450, "x": null, "y": 0.5583333333333333}, {"type": "position", "time": 216497, "x": null, "y": 0.5583333333333333}, {"type": "position", "time": 216544, "x": null, "y": 0.5583333333333333}, {"type": "position", "time": 216594, "x": null, "y": 0.5583333333333333}, {"type": "position", "time": 216647, "x": null, "y": 0.5583333333333333}, {"type": "position", "time": 216695, "x": null, "y": 0.5583333333333333}, {"type": "position", "time": 216758, "x": null, "y": 0.5583333333333333}, {"type": "position", "time": 216804, "x": null, "y": 0.5583333333333333}, {"type": "position", "time": 216851, "x": null, "y": 0.5583333333333333}, {"type": "position", "time": 216898, "x": null, "y": 0.5583333333333333}, {"type": "position", "time": 216945, "x": null, "y": 0.5583333333333333}, {"type": "position", "time": 217008, "x": null, "y": 0.5583333333333333}, {"type": "position", "time": 217055, "x": null, "y": 0.5583333333333333}, {"type": "position", "time": 217101, "x": null, "y": 0.5583333333333333}, {"type": "position", "time": 217148, "x": null, "y": 0.5583333333333333}, {"type": "position", "time": 217195, "x": null, "y": 0.5583333333333333}, {"type": "position", "time": 217258, "x": null, "y": 0.5583333333333333}, {"type": "position", "time": 217304, "x": null, "y": 0.5583333333333333}, {"type": "position", "time": 217351, "x": null, "y": 0.5583333333333333}, {"type": "position", "time": 217398, "x": null, "y": 0.5583333333333333}, {"type": "position", "time": 217446, "x": null, "y": 0.5583333333333333}, {"type": "position", "time": 217508, "x": null, "y": 0.5583333333333333}, {"type": "position", "time": 217555, "x": null, "y": 0.5583333333333333}, {"type": "position", "time": 217602, "x": null, "y": 0.5583333333333333}, {"type": "position", "time": 217643, "x": null, "y": 0.5583333333333333}, {"type": "position", "time": 217774, "x": null, "y": 0.5583333333333333}, {"type": "position", "time": 217793, "x": null, "y": 0.5583333333333333}, {"type": "click", "time": 217825, "x": null, "y": 0.67}, {"type": "position", "time": 217845, "x": null, "y": 0.67}, {"type": "position", "time": 217897, "x": null, "y": 0.67}, {"type": "position", "time": 217959, "x": null, "y": 0.67}, {"type": "position", "time": 218006, "x": null, "y": 0.67}, {"type": "position", "time": 218053, "x": null, "y": 0.67}, {"type": "position", "time": 218100, "x": null, "y": 0.67}, {"type": "position", "time": 218147, "x": null, "y": 0.67}, {"type": "position", "time": 218209, "x": null, "y": 0.67}, {"type": "position", "time": 218256, "x": null, "y": 0.67}, {"type": "position", "time": 218293, "x": null, "y": 0.67}, {"type": "position", "time": 218356, "x": null, "y": 0.67}, {"type": "position", "time": 218403, "x": null, "y": 0.67}, {"type": "position", "time": 218450, "x": null, "y": 0.67}, {"type": "position", "time": 218496, "x": null, "y": 0.67}, {"type": "position", "time": 218559, "x": null, "y": 0.67}, {"type": "position", "time": 218606, "x": null, "y": 0.67}, {"type": "position", "time": 218646, "x": null, "y": 0.67}, {"type": "position", "time": 218693, "x": null, "y": 0.67}, {"type": "position", "time": 218756, "x": null, "y": 0.67}, {"type": "position", "time": 218803, "x": null, "y": 0.67}, {"type": "position", "time": 218855, "x": null, "y": 0.67}, {"type": "position", "time": 218901, "x": null, "y": 0.67}, {"type": "position", "time": 218948, "x": null, "y": 0.67}, {"type": "position", "time": 218995, "x": null, "y": 0.67}, {"type": "position", "time": 219050, "x": null, "y": 0.67}, {"type": "position", "time": 219097, "x": null, "y": 0.67}, {"type": "position", "time": 219148, "x": null, "y": 0.67}, {"type": "position", "time": 219194, "x": null, "y": 0.67}, {"type": "position", "time": 219257, "x": null, "y": 0.67}, {"type": "position", "time": 219304, "x": null, "y": 0.67}, {"type": "position", "time": 219351, "x": null, "y": 0.67}, {"type": "position", "time": 219401, "x": null, "y": 0.67}, {"type": "position", "time": 219448, "x": null, "y": 0.67}, {"type": "position", "time": 219497, "x": null, "y": 0.67}, {"type": "position", "time": 219544, "x": null, "y": 0.67}, {"type": "position", "time": 219607, "x": null, "y": 0.67}, {"type": "position", "time": 219647, "x": null, "y": 0.67}, {"type": "position", "time": 219695, "x": null, "y": 0.67}, {"type": "position", "time": 219758, "x": null, "y": 0.67}, {"type": "position", "time": 219804, "x": null, "y": 0.67}, {"type": "position", "time": 219851, "x": null, "y": 0.67}, {"type": "position", "time": 219898, "x": null, "y": 0.67}, {"type": "position", "time": 219945, "x": null, "y": 0.67}, {"type": "position", "time": 220008, "x": null, "y": 0.67}, {"type": "position", "time": 220054, "x": null, "y": 0.67}, {"type": "position", "time": 220101, "x": null, "y": 0.67}, {"type": "position", "time": 220148, "x": null, "y": 0.67}, {"type": "position", "time": 220195, "x": null, "y": 0.67}, {"type": "position", "time": 220245, "x": null, "y": 0.67}, {"type": "position", "time": 220307, "x": null, "y": 0.67}, {"type": "position", "time": 220344, "x": null, "y": 0.67}, {"type": "position", "time": 220406, "x": null, "y": 0.67}, {"type": "position", "time": 220453, "x": null, "y": 0.67}, {"type": "position", "time": 220500, "x": null, "y": 0.67}, {"type": "position", "time": 220547, "x": null, "y": 0.67}, {"type": "position", "time": 220594, "x": null, "y": 0.67}, {"type": "position", "time": 220646, "x": null, "y": 0.67}, {"type": "position", "time": 220709, "x": null, "y": 0.67}, {"type": "position", "time": 220756, "x": null, "y": 0.67}, {"type": "position", "time": 220803, "x": null, "y": 0.67}, {"type": "position", "time": 220850, "x": null, "y": 0.67}, {"type": "position", "time": 220900, "x": null, "y": 0.67}, {"type": "position", "time": 220947, "x": null, "y": 0.67}, {"type": "position", "time": 220994, "x": null, "y": 0.67}, {"type": "position", "time": 221056, "x": null, "y": 0.67}, {"type": "position", "time": 221103, "x": null, "y": 0.67}, {"type": "position", "time": 221150, "x": null, "y": 0.67}, {"type": "position", "time": 221197, "x": null, "y": 0.67}, {"type": "position", "time": 221244, "x": null, "y": 0.67}, {"type": "position", "time": 221306, "x": null, "y": 0.67}, {"type": "position", "time": 221353, "x": null, "y": 0.67}, {"type": "position", "time": 221400, "x": null, "y": 0.67}, {"type": "position", "time": 221454, "x": null, "y": 0.67}, {"type": "position", "time": 221501, "x": null, "y": 0.67}, {"type": "position", "time": 221547, "x": null, "y": 0.67}, {"type": "position", "time": 221594, "x": null, "y": 0.67}, {"type": "position", "time": 221642, "x": null, "y": 0.67}, {"type": "position", "time": 221694, "x": null, "y": 0.67}, {"type": "position", "time": 221757, "x": null, "y": 0.67}, {"type": "position", "time": 221804, "x": null, "y": 0.67}, {"type": "position", "time": 221851, "x": null, "y": 0.67}, {"type": "position", "time": 221897, "x": null, "y": 0.67}, {"type": "position", "time": 221944, "x": null, "y": 0.67}, {"type": "position", "time": 222007, "x": null, "y": 0.67}, {"type": "position", "time": 222054, "x": null, "y": 0.67}, {"type": "position", "time": 222101, "x": null, "y": 0.67}, {"type": "position", "time": 222148, "x": null, "y": 0.67}, {"type": "position", "time": 222194, "x": null, "y": 0.67}, {"type": "position", "time": 222257, "x": null, "y": 0.67}, {"type": "position", "time": 222304, "x": null, "y": 0.67}, {"type": "position", "time": 222351, "x": null, "y": 0.67}, {"type": "position", "time": 222397, "x": null, "y": 0.67}, {"type": "position", "time": 222444, "x": null, "y": 0.67}, {"type": "position", "time": 222507, "x": null, "y": 0.67}, {"type": "position", "time": 222554, "x": null, "y": 0.67}, {"type": "position", "time": 222601, "x": null, "y": 0.67}, {"type": "position", "time": 222645, "x": null, "y": 0.67}, {"type": "position", "time": 222709, "x": null, "y": 0.67}, {"type": "position", "time": 222756, "x": null, "y": 0.67}, {"type": "position", "time": 222803, "x": null, "y": 0.67}, {"type": "position", "time": 222850, "x": null, "y": 0.67}, {"type": "position", "time": 222897, "x": null, "y": 0.67}, {"type": "position", "time": 222959, "x": null, "y": 0.67}, {"type": "position", "time": 223006, "x": null, "y": 0.67}, {"type": "position", "time": 223053, "x": null, "y": 0.67}, {"type": "position", "time": 223100, "x": null, "y": 0.67}, {"type": "position", "time": 223147, "x": null, "y": 0.67}, {"type": "position", "time": 223200, "x": null, "y": 0.67}, {"type": "position", "time": 223247, "x": null, "y": 0.67}, {"type": "position", "time": 223294, "x": null, "y": 0.67}, {"type": "position", "time": 223357, "x": null, "y": 0.67}, {"type": "position", "time": 223407, "x": null, "y": 0.67}, {"type": "position", "time": 223454, "x": null, "y": 0.67}, {"type": "position", "time": 223508, "x": null, "y": 0.67}, {"type": "position", "time": 223555, "x": null, "y": 0.67}, {"type": "position", "time": 223602, "x": null, "y": 0.67}, {"type": "position", "time": 223647, "x": null, "y": 0.67}, {"type": "position", "time": 223707, "x": null, "y": 0.67}, {"type": "position", "time": 223754, "x": null, "y": 0.67}, {"type": "position", "time": 223800, "x": null, "y": 0.67}, {"type": "position", "time": 223847, "x": null, "y": 0.67}, {"type": "position", "time": 223894, "x": null, "y": 0.67}, {"type": "position", "time": 223957, "x": null, "y": 0.67}, {"type": "position", "time": 224004, "x": null, "y": 0.67}, {"type": "position", "time": 224051, "x": null, "y": 0.67}, {"type": "position", "time": 224097, "x": null, "y": 0.67}, {"type": "position", "time": 224144, "x": null, "y": 0.67}, {"type": "position", "time": 224207, "x": null, "y": 0.67}, {"type": "position", "time": 224254, "x": null, "y": 0.67}, {"type": "position", "time": 224301, "x": null, "y": 0.67}, {"type": "position", "time": 224347, "x": null, "y": 0.67}, {"type": "position", "time": 224394, "x": null, "y": 0.67}, {"type": "position", "time": 224457, "x": null, "y": 0.67}, {"type": "position", "time": 224504, "x": null, "y": 0.67}, {"type": "position", "time": 224551, "x": null, "y": 0.67}, {"type": "position", "time": 224597, "x": null, "y": 0.67}, {"type": "position", "time": 224646, "x": null, "y": 0.67}, {"type": "position", "time": 224709, "x": null, "y": 0.67}, {"type": "position", "time": 224756, "x": null, "y": 0.67}, {"type": "position", "time": 224803, "x": null, "y": 0.67}, {"type": "position", "time": 224849, "x": null, "y": 0.67}, {"type": "position", "time": 224990, "x": null, "y": 0.67}, {"type": "position", "time": 224998, "x": null, "y": 0.67}, {"type": "position", "time": 225106, "x": null, "y": 0.67}, {"type": "click", "time": 225132, "x": null, "y": 0.525}, {"type": "position", "time": 225144, "x": null, "y": 0.525}, {"type": "position", "time": 225208, "x": null, "y": 0.525}, {"type": "position", "time": 225255, "x": null, "y": 0.525}, {"type": "position", "time": 225302, "x": null, "y": 0.525}, {"type": "position", "time": 225349, "x": null, "y": 0.525}, {"type": "position", "time": 225396, "x": null, "y": 0.525}, {"type": "position", "time": 225458, "x": null, "y": 0.525}, {"type": "position", "time": 225505, "x": null, "y": 0.525}, {"type": "position", "time": 225552, "x": null, "y": 0.525}, {"type": "position", "time": 225599, "x": null, "y": 0.525}, {"type": "position", "time": 225646, "x": null, "y": 0.525}, {"type": "position", "time": 225695, "x": null, "y": 0.525}, {"type": "position", "time": 225754, "x": null, "y": 0.525}, {"type": "position", "time": 225801, "x": null, "y": 0.525}, {"type": "position", "time": 225848, "x": null, "y": 0.525}, {"type": "position", "time": 225895, "x": null, "y": 0.525}, {"type": "position", "time": 225957, "x": null, "y": 0.525}, {"type": "position", "time": 226008, "x": null, "y": 0.525}, {"type": "position", "time": 226055, "x": null, "y": 0.525}, {"type": "position", "time": 226102, "x": null, "y": 0.525}, {"type": "position", "time": 226148, "x": null, "y": 0.525}, {"type": "position", "time": 226197, "x": null, "y": 0.525}, {"type": "position", "time": 226257, "x": null, "y": 0.525}, {"type": "position", "time": 226304, "x": null, "y": 0.525}, {"type": "position", "time": 226351, "x": null, "y": 0.525}, {"type": "position", "time": 226398, "x": null, "y": 0.525}, {"type": "position", "time": 226445, "x": null, "y": 0.525}, {"type": "position", "time": 226507, "x": null, "y": 0.525}, {"type": "position", "time": 226554, "x": null, "y": 0.525}, {"type": "position", "time": 226601, "x": null, "y": 0.525}, {"type": "position", "time": 226648, "x": null, "y": 0.525}, {"type": "position", "time": 226709, "x": null, "y": 0.525}, {"type": "position", "time": 226744, "x": null, "y": 0.525}, {"type": "position", "time": 226808, "x": null, "y": 0.525}, {"type": "position", "time": 226855, "x": null, "y": 0.525}, {"type": "position", "time": 226902, "x": null, "y": 0.525}, {"type": "position", "time": 226949, "x": null, "y": 0.525}, {"type": "position", "time": 226996, "x": null, "y": 0.525}, {"type": "position", "time": 227058, "x": null, "y": 0.525}, {"type": "position", "time": 227105, "x": null, "y": 0.525}, {"type": "position", "time": 227152, "x": null, "y": 0.525}, {"type": "position", "time": 227199, "x": null, "y": 0.525}, {"type": "position", "time": 227246, "x": null, "y": 0.525}, {"type": "position", "time": 227297, "x": null, "y": 0.525}, {"type": "position", "time": 227356, "x": null, "y": 0.525}, {"type": "position", "time": 227403, "x": null, "y": 0.525}, {"type": "position", "time": 227450, "x": null, "y": 0.525}, {"type": "position", "time": 227497, "x": null, "y": 0.525}, {"type": "position", "time": 227559, "x": null, "y": 0.525}, {"type": "position", "time": 227606, "x": null, "y": 0.525}, {"type": "position", "time": 227653, "x": null, "y": 0.525}, {"type": "position", "time": 227694, "x": null, "y": 0.525}, {"type": "position", "time": 227754, "x": null, "y": 0.525}, {"type": "position", "time": 227794, "x": null, "y": 0.525}, {"type": "position", "time": 227855, "x": null, "y": 0.525}, {"type": "position", "time": 227902, "x": null, "y": 0.525}, {"type": "position", "time": 227949, "x": null, "y": 0.525}, {"type": "position", "time": 227995, "x": null, "y": 0.525}, {"type": "position", "time": 228058, "x": null, "y": 0.525}, {"type": "position", "time": 228105, "x": null, "y": 0.525}, {"type": "position", "time": 228152, "x": null, "y": 0.525}, {"type": "position", "time": 228199, "x": null, "y": 0.525}, {"type": "position", "time": 228246, "x": null, "y": 0.525}, {"type": "position", "time": 228308, "x": null, "y": 0.525}, {"type": "position", "time": 228345, "x": null, "y": 0.525}, {"type": "position", "time": 228407, "x": null, "y": 0.525}, {"type": "position", "time": 228454, "x": null, "y": 0.525}, {"type": "position", "time": 228501, "x": null, "y": 0.525}, {"type": "position", "time": 228548, "x": null, "y": 0.525}, {"type": "position", "time": 228595, "x": null, "y": 0.525}, {"type": "position", "time": 228657, "x": null, "y": 0.525}, {"type": "position", "time": 228695, "x": null, "y": 0.525}, {"type": "position", "time": 228755, "x": null, "y": 0.525}, {"type": "position", "time": 228802, "x": null, "y": 0.525}, {"type": "position", "time": 228849, "x": null, "y": 0.525}, {"type": "position", "time": 228895, "x": null, "y": 0.525}, {"type": "position", "time": 228955, "x": null, "y": 0.525}, {"type": "position", "time": 229001, "x": null, "y": 0.525}, {"type": "position", "time": 229048, "x": null, "y": 0.525}, {"type": "position", "time": 229095, "x": null, "y": 0.525}, {"type": "position", "time": 229158, "x": null, "y": 0.525}, {"type": "position", "time": 229205, "x": null, "y": 0.525}, {"type": "position", "time": 229256, "x": null, "y": 0.525}, {"type": "position", "time": 229303, "x": null, "y": 0.525}, {"type": "position", "time": 229350, "x": null, "y": 0.525}, {"type": "position", "time": 229394, "x": null, "y": 0.525}, {"type": "position", "time": 229456, "x": null, "y": 0.525}, {"type": "position", "time": 229503, "x": null, "y": 0.525}, {"type": "position", "time": 229550, "x": null, "y": 0.525}, {"type": "position", "time": 229597, "x": null, "y": 0.525}, {"type": "position", "time": 229659, "x": null, "y": 0.525}, {"type": "position", "time": 229694, "x": null, "y": 0.525}, {"type": "position", "time": 229776, "x": null, "y": 0.525}, {"type": "position", "time": 229794, "x": null, "y": 0.525}, {"type": "position", "time": 229846, "x": null, "y": 0.525}, {"type": "position", "time": 229895, "x": null, "y": 0.525}, {"type": "position", "time": 229950, "x": null, "y": 0.525}, {"type": "position", "time": 229995, "x": null, "y": 0.525}, {"type": "position", "time": 230045, "x": null, "y": 0.525}, {"type": "position", "time": 230096, "x": null, "y": 0.525}, {"type": "position", "time": 230144, "x": null, "y": 0.525}, {"type": "position", "time": 230196, "x": null, "y": 0.525}, {"type": "position", "time": 230251, "x": null, "y": 0.525}, {"type": "position", "time": 230298, "x": null, "y": 0.525}, {"type": "position", "time": 230346, "x": null, "y": 0.525}, {"type": "position", "time": 230394, "x": null, "y": 0.525}, {"type": "position", "time": 230446, "x": null, "y": 0.525}, {"type": "position", "time": 230495, "x": null, "y": 0.525}, {"type": "position", "time": 230545, "x": null, "y": 0.525}, {"type": "position", "time": 230592, "x": null, "y": 0.525}, {"type": "position", "time": 230639, "x": null, "y": 0.525}, {"type": "position", "time": 230695, "x": null, "y": 0.525}, {"type": "position", "time": 230747, "x": null, "y": 0.525}, {"type": "position", "time": 230802, "x": null, "y": 0.525}, {"type": "position", "time": 230849, "x": null, "y": 0.525}, {"type": "position", "time": 230896, "x": null, "y": 0.525}, {"type": "position", "time": 230958, "x": null, "y": 0.525}, {"type": "position", "time": 230994, "x": null, "y": 0.525}, {"type": "position", "time": 231037, "x": null, "y": 0.525}, {"type": "position", "time": 231099, "x": null, "y": 0.525}, {"type": "position", "time": 231147, "x": null, "y": 0.525}, {"type": "position", "time": 231194, "x": null, "y": 0.525}, {"type": "position", "time": 231240, "x": null, "y": 0.525}, {"type": "position", "time": 231287, "x": null, "y": 0.525}, {"type": "position", "time": 231349, "x": null, "y": 0.525}, {"type": "position", "time": 231388, "x": null, "y": 0.525}, {"type": "position", "time": 231434, "x": null, "y": 0.525}, {"type": "position", "time": 231495, "x": null, "y": 0.525}, {"type": "position", "time": 231535, "x": null, "y": 0.525}, {"type": "position", "time": 231597, "x": null, "y": 0.525}, {"type": "position", "time": 231648, "x": null, "y": 0.525}, {"type": "position", "time": 231695, "x": null, "y": 0.525}, {"type": "position", "time": 231753, "x": null, "y": 0.525}, {"type": "position", "time": 231800, "x": null, "y": 0.525}, {"type": "position", "time": 231847, "x": null, "y": 0.525}, {"type": "position", "time": 231909, "x": null, "y": 0.525}, {"type": "position", "time": 231956, "x": null, "y": 0.525}, {"type": "position", "time": 232008, "x": null, "y": 0.525}, {"type": "position", "time": 232045, "x": null, "y": 0.525}, {"type": "position", "time": 232132, "x": null, "y": 0.525}, {"type": "position", "time": 232145, "x": null, "y": 0.525}, {"type": "position", "time": 232195, "x": null, "y": 0.525}, {"type": "position", "time": 232253, "x": null, "y": 0.525}, {"type": "position", "time": 232303, "x": null, "y": 0.525}, {"type": "position", "time": 232347, "x": null, "y": 0.525}, {"type": "position", "time": 232395, "x": null, "y": 0.525}, {"type": "position", "time": 232445, "x": null, "y": 0.525}, {"type": "position", "time": 232495, "x": null, "y": 0.525}, {"type": "position", "time": 232548, "x": null, "y": 0.525}, {"type": "position", "time": 232596, "x": null, "y": 0.525}, {"type": "position", "time": 232652, "x": null, "y": 0.525}, {"type": "position", "time": 232697, "x": null, "y": 0.525}, {"type": "position", "time": 232752, "x": null, "y": 0.525}, {"type": "position", "time": 232799, "x": null, "y": 0.525}, {"type": "position", "time": 232846, "x": null, "y": 0.525}, {"type": "position", "time": 232897, "x": null, "y": 0.525}, {"type": "position", "time": 232959, "x": null, "y": 0.525}, {"type": "position", "time": 232994, "x": null, "y": 0.525}, {"type": "position", "time": 233057, "x": null, "y": 0.525}, {"type": "position", "time": 233093, "x": null, "y": 0.525}, {"type": "position", "time": 233153, "x": null, "y": 0.525}, {"type": "position", "time": 233200, "x": null, "y": 0.525}, {"type": "position", "time": 233247, "x": null, "y": 0.525}, {"type": "position", "time": 233310, "x": null, "y": 0.525}, {"type": "position", "time": 233356, "x": null, "y": 0.525}, {"type": "position", "time": 233403, "x": null, "y": 0.525}, {"type": "position", "time": 233457, "x": null, "y": 0.525}, {"type": "position", "time": 233504, "x": null, "y": 0.525}, {"type": "position", "time": 233551, "x": null, "y": 0.525}, {"type": "position", "time": 233598, "x": null, "y": 0.525}, {"type": "position", "time": 233645, "x": null, "y": 0.525}, {"type": "position", "time": 233694, "x": null, "y": 0.525}, {"type": "position", "time": 233752, "x": null, "y": 0.525}, {"type": "position", "time": 233799, "x": null, "y": 0.525}, {"type": "position", "time": 233846, "x": null, "y": 0.525}, {"type": "position", "time": 233908, "x": null, "y": 0.525}, {"type": "position", "time": 233955, "x": null, "y": 0.525}, {"type": "position", "time": 234002, "x": null, "y": 0.525}, {"type": "position", "time": 234049, "x": null, "y": 0.525}, {"type": "position", "time": 234096, "x": null, "y": 0.525}, {"type": "position", "time": 234144, "x": null, "y": 0.525}, {"type": "position", "time": 234202, "x": null, "y": 0.525}, {"type": "position", "time": 234249, "x": null, "y": 0.525}, {"type": "position", "time": 234296, "x": null, "y": 0.525}, {"type": "position", "time": 234359, "x": null, "y": 0.525}, {"type": "position", "time": 234406, "x": null, "y": 0.525}, {"type": "position", "time": 234452, "x": null, "y": 0.525}, {"type": "position", "time": 234499, "x": null, "y": 0.525}, {"type": "position", "time": 234546, "x": null, "y": 0.525}, {"type": "position", "time": 234606, "x": null, "y": 0.525}, {"type": "position", "time": 234650, "x": null, "y": 0.525}, {"type": "keyup", "time": 234682, "key": "S", "keyCode": 83}, {"type": "position", "time": 234697, "x": null, "y": 0.525}, {"type": "position", "time": 234745, "x": null, "y": 0.525}, {"type": "position", "time": 234797, "x": null, "y": 0.525}, {"type": "position", "time": 234846, "x": null, "y": 0.525}, {"type": "keyup", "time": 234897, "key": "H", "keyCode": 72}, {"type": "position", "time": 234897