{"ApprovalTime": "2016-03-10T20:46:00Z", "SubmitTime": "2016-03-10T20:45:10Z", "AssignmentId": "34X6J5FLPTY5H35WMTO0EWCMJL9QJH", "HITId": "38G0E1M85M53D7EEUOHN21OJ7HQVU5", "answers": {"data": {"trials": [{"story": "reading", "time": 6990, "name": "Nicholas", "rt": 5729, "blocknum": 0, "qtype": "probability", "response": 0.5, "trialnum": 1, "gender": "male", "qnum": 0}, {"story": "reading", "time": 6990, "name": "Nicholas", "rt": 5729, "blocknum": 0, "qtype": "ungrammatical", "trialnum": 1, "gender": "male", "qnum": 0}, {"story": "reading", "time": 14939, "name": "Adam", "rt": 7945, "blocknum": 0, "qtype": "explanation", "response": "He is smart", "trialnum": 2, "gender": "male", "qnum": 1}, {"story": "reading", "time": 18608, "name": "Adam", "rt": 3660, "blocknum": 0, "qtype": "probability", "response": 0.5, "trialnum": 3, "gender": "male", "qnum": 2}, {"story": "reading", "time": 18608, "name": "Adam", "rt": 3660, "blocknum": 0, "qtype": "ungrammatical", "trialnum": 3, "gender": "male", "qnum": 2}, {"story": "reading", "time": 27325, "name": "Melissa", "rt": 8710, "blocknum": 0, "qtype": "probability", "response": 0.43, "trialnum": 4, "gender": "female", "qnum": 3}, {"story": "reading", "time": 27325, "name": "Melissa", "rt": 8710, "blocknum": 0, "qtype": "ungrammatical", "response": false, "trialnum": 4, "gender": "female", "qnum": 3}, {"story": "reading", "time": 29086, "name": "Ethan", "rt": 1756, "blocknum": 0, "qtype": "probability", "response": 0.52, "trialnum": 5, "gender": "male", "qnum": 4}, {"story": "reading", "time": 29086, "name": "Ethan", "rt": 1756, "blocknum": 0, "qtype": "ungrammatical", "response": false, "trialnum": 5, "gender": "male", "qnum": 4}, {"story": "reading", "time": 30722, "name": "Jeff", "rt": 1632, "blocknum": 0, "qtype": "probability", "response": 0.47, "trialnum": 6, "gender": "male", "qnum": 5}, {"story": "reading", "time": 30722, "name": "Jeff", "rt": 1632, "blocknum": 0, "qtype": "ungrammatical", "response": false, "trialnum": 6, "gender": "male", "qnum": 5}, {"story": "Japan", "time": 36394, "name": "Brooke", "rt": 5665, "blocknum": 1, "qtype": "probability", "response": 0.73, "trialnum": 8, "gender": "female", "qnum": 0}, {"story": "Japan", "time": 36394, "name": "Brooke", "rt": 5665, "blocknum": 1, "qtype": "ungrammatical", "trialnum": 8, "gender": "female", "qnum": 0}, {"story": "Japan", "time": 44930, "name": "Matthew", "rt": 8534, "blocknum": 1, "qtype": "explanation", "response": "He was from japan", "trialnum": 9, "gender": "male", "qnum": 1}, {"story": "Japan", "time": 49721, "name": "Matthew", "rt": 4787, "blocknum": 1, "qtype": "probability", "response": 0.98, "trialnum": 10, "gender": "male", "qnum": 2}, {"story": "Japan", "time": 49721, "name": "Matthew", "rt": 4787, "blocknum": 1, "qtype": "ungrammatical", "trialnum": 10, "gender": "male", "qnum": 2}, {"story": "Japan", "time": 51806, "name": "Luis", "rt": 2081, "blocknum": 1, "qtype": "probability", "response": 0.62, "trialnum": 11, "gender": "male", "qnum": 3}, {"story": "Japan", "time": 51806, "name": "Luis", "rt": 2081, "blocknum": 1, "qtype": "ungrammatical", "response": false, "trialnum": 11, "gender": "male", "qnum": 3}, {"story": "Japan", "time": 53602, "name": "Cameron", "rt": 1792, "blocknum": 1, "qtype": "probability", "response": 0.5, "trialnum": 12, "gender": "male", "qnum": 4}, {"story": "Japan", "time": 53602, "name": "Cameron", "rt": 1792, "blocknum": 1, "qtype": "ungrammatical", "response": false, "trialnum": 12, "gender": "male", "qnum": 4}, {"story": "Japan", "time": 55762, "name": "Jacqueline", "rt": 2157, "blocknum": 1, "qtype": "probability", "response": 0.65, "trialnum": 13, "gender": "female", "qnum": 5}, {"story": "Japan", "time": 55762, "name": "Jacqueline", "rt": 2157, "blocknum": 1, "qtype": "ungrammatical", "response": false, "trialnum": 13, "gender": "female", "qnum": 5}, {"story": "fitness", "time": 64161, "name": "Kristen", "rt": 8393, "blocknum": 2, "qtype": "probability", "response": 0.98, "trialnum": 15, "gender": "female", "qnum": 0}, {"story": "fitness", "time": 64161, "name": "Kristen", "rt": 8393, "blocknum": 2, "qtype": "ungrammatical", "trialnum": 15, "gender": "female", "qnum": 0}, {"story": "fitness", "time": 71200, "name": "Timothy", "rt": 7036, "blocknum": 2, "qtype": "explanation", "response": "He ate too much", "trialnum": 16, "gender": "male", "qnum": 1}, {"story": "fitness", "time": 75504, "name": "Timothy", "rt": 4301, "blocknum": 2, "qtype": "probability", "response": 0.86, "trialnum": 17, "gender": "male", "qnum": 2}, {"story": "fitness", "time": 75504, "name": "Timothy", "rt": 4301, "blocknum": 2, "qtype": "ungrammatical", "trialnum": 17, "gender": "male", "qnum": 2}, {"story": "fitness", "time": 77508, "name": "Joseph", "rt": 2000, "blocknum": 2, "qtype": "probability", "response": 0.63, "trialnum": 18, "gender": "male", "qnum": 3}, {"story": "fitness", "time": 77508, "name": "Joseph", "rt": 2000, "blocknum": 2, "qtype": "ungrammatical", "response": false, "trialnum": 18, "gender": "male", "qnum": 3}, {"story": "fitness", "time": 79060, "name": "Samantha", "rt": 1548, "blocknum": 2, "qtype": "probability", "response": 0.55, "trialnum": 19, "gender": "female", "qnum": 4}, {"story": "fitness", "time": 79060, "name": "Samantha", "rt": 1548, "blocknum": 2, "qtype": "ungrammatical", "response": false, "trialnum": 19, "gender": "female", "qnum": 4}, {"story": "fitness", "time": 80089, "name": "Angela", "rt": 1023, "blocknum": 2, "qtype": "probability", "response": 0.49, "trialnum": 20, "gender": "female", "qnum": 5}, {"story": "fitness", "time": 80089, "name": "Angela", "rt": 1023, "blocknum": 2, "qtype": "ungrammatical", "response": false, "trialnum": 20, "gender": "female", "qnum": 5}, {"story": "insomnia", "time": 117168, "name": "Lauren", "rt": 37074, "blocknum": 3, "qtype": "probability", "response": 0.54, "trialnum": 22, "gender": "female", "qnum": 0}, {"story": "insomnia", "time": 117168, "name": "Lauren", "rt": 37074, "blocknum": 3, "qtype": "ungrammatical", "trialnum": 22, "gender": "female", "qnum": 0}, {"story": "insomnia", "time": 130686, "name": "Nathan", "rt": 13515, "blocknum": 3, "qtype": "explanation", "response": "He had narcolepsy", "trialnum": 23, "gender": "male", "qnum": 1}, {"story": "insomnia", "time": 133324, "name": "Nathan", "rt": 2635, "blocknum": 3, "qtype": "probability", "response": 0.47, "trialnum": 24, "gender": "male", "qnum": 2}, {"story": "insomnia", "time": 133324, "name": "Nathan", "rt": 2635, "blocknum": 3, "qtype": "ungrammatical", "trialnum": 24, "gender": "male", "qnum": 2}, {"story": "insomnia", "time": 137668, "name": "Noah", "rt": 4340, "blocknum": 3, "qtype": "probability", "response": 0.53, "trialnum": 25, "gender": "male", "qnum": 3}, {"story": "insomnia", "time": 137668, "name": "Noah", "rt": 4340, "blocknum": 3, "qtype": "ungrammatical", "response": false, "trialnum": 25, "gender": "male", "qnum": 3}, {"story": "insomnia", "time": 139175, "name": "Paul", "rt": 1503, "blocknum": 3, "qtype": "probability", "response": 0.34, "trialnum": 26, "gender": "male", "qnum": 4}, {"story": "insomnia", "time": 139175, "name": "Paul", "rt": 1503, "blocknum": 3, "qtype": "ungrammatical", "response": false, "trialnum": 26, "gender": "male", "qnum": 4}, {"story": "insomnia", "time": 141049, "name": "Jennifer", "rt": 1870, "blocknum": 3, "qtype": "probability", "response": 0.54, "trialnum": 27, "gender": "female", "qnum": 5}, {"story": "insomnia", "time": 141049, "name": "Jennifer", "rt": 1870, "blocknum": 3, "qtype": "ungrammatical", "response": false, "trialnum": 27, "gender": "female", "qnum": 5}, {"story": "guitar", "time": 142649, "name": "Kathryn", "rt": 1596, "blocknum": 4, "qtype": "probability", "response": 0.53, "trialnum": 29, "gender": "female", "qnum": 0}, {"story": "guitar", "time": 142649, "name": "Kathryn", "rt": 1596, "blocknum": 4, "qtype": "ungrammatical", "trialnum": 29, "gender": "female", "qnum": 0}, {"story": "guitar", "time": 148458, "name": "Logan", "rt": 5808, "blocknum": 4, "qtype": "explanation", "response": "He didnt want to ", "trialnum": 30, "gender": "male", "qnum": 1}, {"story": "guitar", "time": 151140, "name": "Logan", "rt": 2678, "blocknum": 4, "qtype": "probability", "response": 0.73, "trialnum": 31, "gender": "male", "qnum": 2}, {"story": "guitar", "time": 151140, "name": "Logan", "rt": 2678, "blocknum": 4, "qtype": "ungrammatical", "trialnum": 31, "gender": "male", "qnum": 2}, {"story": "guitar", "time": 152676, "name": "Madison", "rt": 1529, "blocknum": 4, "qtype": "probability", "response": 0.56, "trialnum": 32, "gender": "female", "qnum": 3}, {"story": "guitar", "time": 152676, "name": "Madison", "rt": 1529, "blocknum": 4, "qtype": "ungrammatical", "response": false, "trialnum": 32, "gender": "female", "qnum": 3}, {"story": "guitar", "time": 154281, "name": "Ashley", "rt": 1600, "blocknum": 4, "qtype": "probability", "response": 0.54, "trialnum": 33, "gender": "female", "qnum": 4}, {"story": "guitar", "time": 154281, "name": "Ashley", "rt": 1600, "blocknum": 4, "qtype": "ungrammatical", "response": false, "trialnum": 33, "gender": "female", "qnum": 4}, {"story": "guitar", "time": 155544, "name": "Samuel", "rt": 1260, "blocknum": 4, "qtype": "probability", "response": 0.68, "trialnum": 34, "gender": "male", "qnum": 5}, {"story": "guitar", "time": 155544, "name": "Samuel", "rt": 1260, "blocknum": 4, "qtype": "ungrammatical", "response": false, "trialnum": 34, "gender": "male", "qnum": 5}, {"story": "painting", "time": 164816, "name": "Corey", "rt": 9268, "blocknum": 5, "qtype": "probability", "response": 0.82, "trialnum": 36, "gender": "male", "qnum": 0}, {"story": "painting", "time": 164816, "name": "Corey", "rt": 9268, "blocknum": 5, "qtype": "ungrammatical", "trialnum": 36, "gender": "male", "qnum": 0}, {"story": "painting", "time": 170296, "name": "Sean", "rt": 5478, "blocknum": 5, "qtype": "explanation", "response": "He was just no good", "trialnum": 37, "gender": "male", "qnum": 1}, {"story": "painting", "time": 172704, "name": "Sean", "rt": 2405, "blocknum": 5, "qtype": "probability", "response": 0.57, "trialnum": 38, "gender": "male", "qnum": 2}, {"story": "painting", "time": 172704, "name": "Sean", "rt": 2405, "blocknum": 5, "qtype": "ungrammatical", "trialnum": 38, "gender": "male", "qnum": 2}, {"story": "painting", "time": 174612, "name": "Austin", "rt": 1903, "blocknum": 5, "qtype": "probability", "response": 0.65, "trialnum": 39, "gender": "male", "qnum": 3}, {"story": "painting", "time": 174612, "name": "Austin", "rt": 1903, "blocknum": 5, "qtype": "ungrammatical", "response": false, "trialnum": 39, "gender": "male", "qnum": 3}, {"story": "painting", "time": 176140, "name": "Brian", "rt": 1524, "blocknum": 5, "qtype": "probability", "response": 0.56, "trialnum": 40, "gender": "male", "qnum": 4}, {"story": "painting", "time": 176140, "name": "Brian", "rt": 1524, "blocknum": 5, "qtype": "ungrammatical", "response": false, "trialnum": 40, "gender": "male", "qnum": 4}, {"story": "painting", "time": 178416, "name": "Travis", "rt": 2272, "blocknum": 5, "qtype": "probability", "response": 0.52, "trialnum": 41, "gender": "male", "qnum": 5}, {"story": "painting", "time": 178416, "name": "Travis", "rt": 2272, "blocknum": 5, "qtype": "ungrammatical", "response": false, "trialnum": 41, "gender": "male", "qnum": 5}, {"story": "coffee", "time": 187416, "name": "Destiny", "rt": 8995, "blocknum": 6, "qtype": "probability", "response": 0.68, "trialnum": 43, "gender": "female", "qnum": 0}, {"story": "coffee", "time": 187416, "name": "Destiny", "rt": 8995, "blocknum": 6, "qtype": "ungrammatical", "trialnum": 43, "gender": "female", "qnum": 0}, {"story": "coffee", "time": 197890, "name": "Trevor", "rt": 10472, "blocknum": 6, "qtype": "explanation", "response": "used to caffine", "trialnum": 44, "gender": "male", "qnum": 1}, {"story": "coffee", "time": 200076, "name": "Trevor", "rt": 2183, "blocknum": 6, "qtype": "probability", "response": 0.58, "trialnum": 45, "gender": "male", "qnum": 2}, {"story": "coffee", "time": 200076, "name": "Trevor", "rt": 2183, "blocknum": 6, "qtype": "ungrammatical", "trialnum": 45, "gender": "male", "qnum": 2}, {"story": "coffee", "time": 202888, "name": "Patrick", "rt": 2807, "blocknum": 6, "qtype": "probability", "response": 0.66, "trialnum": 46, "gender": "male", "qnum": 3}, {"story": "coffee", "time": 202888, "name": "Patrick", "rt": 2807, "blocknum": 6, "qtype": "ungrammatical", "response": false, "trialnum": 46, "gender": "male", "qnum": 3}, {"story": "coffee", "time": 204347, "name": "Nicole", "rt": 1456, "blocknum": 6, "qtype": "probability", "response": 0.49, "trialnum": 47, "gender": "female", "qnum": 4}, {"story": "coffee", "time": 204347, "name": "Nicole", "rt": 1456, "blocknum": 6, "qtype": "ungrammatical", "response": false, "trialnum": 47, "gender": "female", "qnum": 4}, {"story": "coffee", "time": 205724, "name": "Christina", "rt": 1374, "blocknum": 6, "qtype": "probability", "response": 0.6, "trialnum": 48, "gender": "female", "qnum": 5}, {"story": "coffee", "time": 205724, "name": "Christina", "rt": 1374, "blocknum": 6, "qtype": "ungrammatical", "response": false, "trialnum": 48, "gender": "female", "qnum": 5}, {"story": "cooking", "time": 208272, "name": "Jared", "rt": 2542, "blocknum": 7, "qtype": "probability", "response": 0.53, "trialnum": 50, "gender": "male", "qnum": 0}, {"story": "cooking", "time": 208272, "name": "Jared", "rt": 2542, "blocknum": 7, "qtype": "ungrammatical", "trialnum": 50, "gender": "male", "qnum": 0}, {"story": "cooking", "time": 214813, "name": "Dustin", "rt": 6539, "blocknum": 7, "qtype": "explanation", "response": "He didnt work hard", "trialnum": 51, "gender": "male", "qnum": 1}, {"story": "cooking", "time": 218116, "name": "Dustin", "rt": 3299, "blocknum": 7, "qtype": "probability", "response": 0.57, "trialnum": 52, "gender": "male", "qnum": 2}, {"story": "cooking", "time": 218116, "name": "Dustin", "rt": 3299, "blocknum": 7, "qtype": "ungrammatical", "trialnum": 52, "gender": "male", "qnum": 2}, {"story": "cooking", "time": 219708, "name": "Alexis", "rt": 1587, "blocknum": 7, "qtype": "probability", "response": 0.51, "trialnum": 53, "gender": "female", "qnum": 3}, {"story": "cooking", "time": 219708, "name": "Alexis", "rt": 1587, "blocknum": 7, "qtype": "ungrammatical", "response": false, "trialnum": 53, "gender": "female", "qnum": 3}, {"story": "cooking", "time": 220813, "name": "Kaitlyn", "rt": 1100, "blocknum": 7, "qtype": "probability", "response": 0.58, "trialnum": 54, "gender": "female", "qnum": 4}, {"story": "cooking", "time": 220813, "name": "Kaitlyn", "rt": 1100, "blocknum": 7, "qtype": "ungrammatical", "response": false, "trialnum": 54, "gender": "female", "qnum": 4}, {"story": "cooking", "time": 222848, "name": "Maria", "rt": 2032, "blocknum": 7, "qtype": "probability", "response": 0.67, "trialnum": 55, "gender": "female", "qnum": 5}, {"story": "cooking", "time": 222848, "name": "Maria", "rt": 2032, "blocknum": 7, "qtype": "ungrammatical", "response": false, "trialnum": 55, "gender": "female", "qnum": 5}, {"story": "beach", "time": 224436, "name": "Mary", "rt": 1583, "blocknum": 8, "qtype": "probability", "response": 0.51, "trialnum": 57, "gender": "female", "qnum": 0}, {"story": "beach", "time": 224436, "name": "Mary", "rt": 1583, "blocknum": 8, "qtype": "ungrammatical", "trialnum": 57, "gender": "female", "qnum": 0}, {"story": "beach", "time": 235028, "name": "Carlos", "rt": 10590, "blocknum": 8, "qtype": "explanation", "response": "There were no wave", "trialnum": 58, "gender": "male", "qnum": 1}, {"story": "beach", "time": 237633, "name": "Carlos", "rt": 2599, "blocknum": 8, "qtype": "probability", "response": 0.89, "trialnum": 59, "gender": "male", "qnum": 2}, {"story": "beach", "time": 237633, "name": "Carlos", "rt": 2599, "blocknum": 8, "qtype": "ungrammatical", "trialnum": 59, "gender": "male", "qnum": 2}, {"story": "beach", "time": 239984, "name": "Haley", "rt": 2347, "blocknum": 8, "qtype": "probability", "response": 0.59, "trialnum": 60, "gender": "female", "qnum": 3}, {"story": "beach", "time": 239984, "name": "Haley", "rt": 2347, "blocknum": 8, "qtype": "ungrammatical", "response": false, "trialnum": 60, "gender": "female", "qnum": 3}, {"story": "beach", "time": 241396, "name": "Jeremy", "rt": 1408, "blocknum": 8, "qtype": "probability", "response": 0.52, "trialnum": 61, "gender": "male", "qnum": 4}, {"story": "beach", "time": 241396, "name": "Jeremy", "rt": 1408, "blocknum": 8, "qtype": "ungrammatical", "response": false, "trialnum": 61, "gender": "male", "qnum": 4}, {"story": "beach", "time": 242484, "name": "Amy", "rt": 1085, "blocknum": 8, "qtype": "probability", "response": 0.43, "trialnum": 62, "gender": "female", "qnum": 5}, {"story": "beach", "time": 242484, "name": "Amy", "rt": 1085, "blocknum": 8, "qtype": "ungrammatical", "response": false, "trialnum": 62, "gender": "female", "qnum": 5}], "events": [{"type": "position", "time": 103, "x": 0, "y": 0}, {"type": "position", "time": 216, "x": 0, "y": 0}, {"type": "position", "time": 261, "x": 0, "y": 0}, {"type": "position", "time": 312, "x": 0.9799786482302187, "y": 0.6555773156937555}, {"type": "position", "time": 361, "x": 0.9799786482302187, "y": 0.6555773156937555}, {"type": "position", "time": 411, "x": 0.9799786482302187, "y": 0.6555773156937555}, {"type": "position", "time": 461, "x": 1.0175257228750547, "y": 0.6638968247761636}, {"type": "position", "time": 511, "x": 1.0625822124488578, "y": 0.6406021993454211}, {"type": "position", "time": 561, "x": 1.0838588880809314, "y": 0.5790378321356013}, {"type": "position", "time": 611, "x": 1.1151481169516282, "y": 0.5058261522104104}, {"type": "position", "time": 661, "x": 1.1364247925837019, "y": 0.4692203122478149}, {"type": "position", "time": 711, "x": 1.1476889149771528, "y": 0.44925349045003554}, {"type": "position", "time": 762, "x": 1.2015063886347508, "y": 0.42096715956984815}, {"type": "position", "time": 811, "x": 1.2015063886347508, "y": 0.4193032577533665}, {"type": "position", "time": 861, "x": 1.2165252184926854, "y": 0.4309505704687378}, {"type": "position", "time": 911, "x": 1.219028356802341, "y": 0.4309505704687378}, {"type": "position", "time": 961, "x": 1.2202799259571688, "y": 0.4392700795511459}, {"type": "position", "time": 1011, "x": 1.2240346334216525, "y": 0.4609008031654068}, {"type": "position", "time": 1061, "x": 1.2240346334216525, "y": 0.4609008031654068}, {"type": "position", "time": 1111, "x": 1.2240346334216525, "y": 0.4609008031654068}, {"type": "position", "time": 1161, "x": 1.2265377717313082, "y": 0.4658925086148517}, {"type": "position", "time": 1211, "x": 1.2265377717313082, "y": 0.4658925086148517}, {"type": "click", "time": 1261, "x": 1.2265377717313082, "y": 0.4658925086148517}, {"type": "position", "time": 1276, "x": 1.2250045937672267, "y": 0.4658925086148517}, {"type": "position", "time": 1311, "x": 1.2250045937672267, "y": 0.4658925086148517}, {"type": "position", "time": 1361, "x": 1.2250045937672267, "y": 0.4658925086148517}, {"type": "position", "time": 1411, "x": 1.2250045937672267, "y": 0.4658925086148517}, {"type": "position", "time": 1462, "x": 1.2250045937672267, "y": 0.4658925086148517}, {"type": "position", "time": 1511, "x": 1.2250045937672267, "y": 0.4658925086148517}, {"type": "position", "time": 1562, "x": 1.2250045937672267, "y": 0.4658925086148517}, {"type": "position", "time": 1611, "x": 1.2250045937672267, "y": 0.4658925086148517}, {"type": "position", "time": 1661, "x": 1.2250045937672267, "y": 0.4658925086148517}, {"type": "position", "time": 1711, "x": 1.2250045937672267, "y": 0.47421201769725974}, {"type": "position", "time": 1764, "x": 1.2250045937672267, "y": 0.48419542859614945}, {"type": "position", "time": 1811, "x": 1.2225045843921916, "y": 0.5158095631093}, {"type": "position", "time": 1861, "x": 1.2212545797046739, "y": 0.5690544212367117}, {"type": "position", "time": 1911, "x": 1.2212545797046739, "y": 0.5690544212367117}, {"type": "position", "time": 1961, "x": 1.2212545797046739, "y": 0.5740461266861565}, {"type": "position", "time": 2011, "x": 1.2212545797046739, "y": 0.5790378321356013}, {"type": "position", "time": 2061, "x": 1.2212545797046739, "y": 0.5790378321356013}, {"type": "position", "time": 2111, "x": 1.2212545797046739, "y": 0.5790378321356013}, {"type": "position", "time": 2161, "x": 1.2212545797046739, "y": 0.5790378321356013}, {"type": "position", "time": 2211, "x": 1.2212545797046739, "y": 0.5790378321356013}, {"type": "position", "time": 2262, "x": 1.2212545797046739, "y": 0.5790378321356013}, {"type": "position", "time": 2311, "x": 1.2212545797046739, "y": 0.5790378321356013}, {"type": "position", "time": 2361, "x": 1.2212545797046739, "y": 0.5790378321356013}, {"type": "position", "time": 2412, "x": 1.2212545797046739, "y": 0.5790378321356013}, {"type": "position", "time": 2461, "x": 1.2212545797046739, "y": 0.5790378321356013}, {"type": "position", "time": 2511, "x": 1.2212545797046739, "y": 0.5790378321356013}, {"type": "position", "time": 2561, "x": 1.2212545797046739, "y": 0.5790378321356013}, {"type": "position", "time": 2611, "x": 1.2212545797046739, "y": 0.5790378321356013}, {"type": "position", "time": 2661, "x": 1.2212545797046739, "y": 0.5790378321356013}, {"type": "position", "time": 2711, "x": 1.2212545797046739, "y": 0.5790378321356013}, {"type": "position", "time": 2761, "x": 1.2212545797046739, "y": 0.5790378321356013}, {"type": "position", "time": 2811, "x": 1.2212545797046739, "y": 0.5790378321356013}, {"type": "position", "time": 2861, "x": 1.2212545797046739, "y": 0.5790378321356013}, {"type": "position", "time": 2911, "x": 1.2212545797046739, "y": 0.5790378321356013}, {"type": "position", "time": 2962, "x": 1.2212545797046739, "y": 0.5790378321356013}, {"type": "position", "time": 3011, "x": 1.2212545797046739, "y": 0.5790378321356013}, {"type": "position", "time": 3061, "x": 1.2212545797046739, "y": 0.5790378321356013}, {"type": "position", "time": 3111, "x": 1.2212545797046739, "y": 0.5790378321356013}, {"type": "position", "time": 3161, "x": 1.2212545797046739, "y": 0.5790378321356013}, {"type": "position", "time": 3211, "x": 1.2212545797046739, "y": 0.5790378321356013}, {"type": "position", "time": 3262, "x": 1.2212545797046739, "y": 0.5790378321356013}, {"type": "position", "time": 3311, "x": 1.2212545797046739, "y": 0.5790378321356013}, {"type": "position", "time": 3361, "x": 1.2212545797046739, "y": 0.5790378321356013}, {"type": "position", "time": 3411, "x": 1.2212545797046739, "y": 0.5790378321356013}, {"type": "position", "time": 3461, "x": 1.2212545797046739, "y": 0.5790378321356013}, {"type": "position", "time": 3511, "x": 1.2212545797046739, "y": 0.5790378321356013}, {"type": "position", "time": 3561, "x": 1.2212545797046739, "y": 0.5790378321356013}, {"type": "position", "time": 3612, "x": 1.2212545797046739, "y": 0.5790378321356013}, {"type": "position", "time": 3661, "x": 1.2212545797046739, "y": 0.5790378321356013}, {"type": "position", "time": 3711, "x": 1.2212545797046739, "y": 0.5790378321356013}, {"type": "position", "time": 3761, "x": 1.2212545797046739, "y": 0.5790378321356013}, {"type": "position", "time": 3811, "x": 1.2212545797046739, "y": 0.5790378321356013}, {"type": "position", "time": 3861, "x": 1.2212545797046739, "y": 0.5790378321356013}, {"type": "position", "time": 3911, "x": 1.2212545797046739, "y": 0.5790378321356013}, {"type": "position", "time": 3961, "x": 1.2212545797046739, "y": 0.5790378321356013}, {"type": "position", "time": 4011, "x": 1.2212545797046739, "y": 0.5790378321356013}, {"type": "position", "time": 4061, "x": 1.2212545797046739, "y": 0.5790378321356013}, {"type": "position", "time": 4111, "x": 1.2212545797046739, "y": 0.5790378321356013}, {"type": "position", "time": 4161, "x": 1.2212545797046739, "y": 0.5790378321356013}, {"type": "position", "time": 4211, "x": 1.2212545797046739, "y": 0.5790378321356013}, {"type": "position", "time": 4261, "x": 1.2212545797046739, "y": 0.5790378321356013}, {"type": "position", "time": 4311, "x": 1.2212545797046739, "y": 0.5790378321356013}, {"type": "position", "time": 4361, "x": 1.2212545797046739, "y": 0.5790378321356013}, {"type": "position", "time": 4412, "x": 1.2212545797046739, "y": 0.5790378321356013}, {"type": "position", "time": 4461, "x": 1.2212545797046739, "y": 0.5790378321356013}, {"type": "position", "time": 4512, "x": 1.2212545797046739, "y": 0.5790378321356013}, {"type": "position", "time": 4561, "x": 1.2212545797046739, "y": 0.5790378321356013}, {"type": "position", "time": 4612, "x": 1.2212545797046739, "y": 0.5790378321356013}, {"type": "position", "time": 4661, "x": 1.2212545797046739, "y": 0.5790378321356013}, {"type": "position", "time": 4711, "x": 1.2212545797046739, "y": 0.5790378321356013}, {"type": "position", "time": 4761, "x": 1.2212545797046739, "y": 0.5790378321356013}, {"type": "position", "time": 4811, "x": 1.2212545797046739, "y": 0.5790378321356013}, {"type": "position", "time": 4861, "x": 1.2212545797046739, "y": 0.5790378321356013}, {"type": "position", "time": 4911, "x": 1.2212545797046739, "y": 0.5790378321356013}, {"type": "slider", "time": 4970, "value": 0.5}, {"type": "position", "time": 4972, "x": 1.2212545797046739, "y": 0.5790378321356013}, {"type": "position", "time": 5011, "x": 1.2212545797046739, "y": 0.5790378321356013}, {"type": "click", "time": 5045, "x": 1.2212545797046739, "y": 0.5790378321356013}, {"type": "position", "time": 5061, "x": 1.2212545797046739, "y": 0.5790378321356013}, {"type": "position", "time": 5111, "x": 1.2212545797046739, "y": 0.5790378321356013}, {"type": "position", "time": 5161, "x": 1.2212545797046739, "y": 0.5790378321356013}, {"type": "position", "time": 5211, "x": 1.2212545797046739, "y": 0.5790378321356013}, {"type": "position", "time": 5261, "x": 1.2212545797046739, "y": 0.5790378321356013}, {"type": "position", "time": 5311, "x": 1.2212545797046739, "y": 0.5790378321356013}, {"type": "position", "time": 5362, "x": 1.2212545797046739, "y": 0.5790378321356013}, {"type": "position", "time": 5411, "x": 1.2212545797046739, "y": 0.5840295375850463}, {"type": "position", "time": 5461, "x": 1.2137545515795685, "y": 0.6206353775476418}, {"type": "position", "time": 5511, "x": 1.2075045281419805, "y": 0.6489217084278291}, {"type": "position", "time": 5561, "x": 1.2075045281419805, "y": 0.6555773156937555}, {"type": "position", "time": 5612, "x": 1.203754514079428, "y": 0.6788719411244982}, {"type": "position", "time": 5661, "x": 1.2025045093919102, "y": 0.6888553520233879}, {"type": "position", "time": 5711, "x": 1.2025045093919102, "y": 0.7005026647387591}, {"type": "position", "time": 5761, "x": 1.2025045093919102, "y": 0.7054943701882039}, {"type": "position", "time": 5812, "x": 1.200004500016875, "y": 0.7054943701882039}, {"type": "position", "time": 5861, "x": 1.200004500016875, "y": 0.7054943701882039}, {"type": "position", "time": 5911, "x": 1.200004500016875, "y": 0.7054943701882039}, {"type": "position", "time": 5961, "x": 1.200004500016875, "y": 0.7054943701882039}, {"type": "position", "time": 6011, "x": 1.200004500016875, "y": 0.7054943701882039}, {"type": "position", "time": 6061, "x": 1.200004500016875, "y": 0.7054943701882039}, {"type": "position", "time": 6111, "x": 1.200004500016875, "y": 0.7054943701882039}, {"type": "position", "time": 6161, "x": 1.200004500016875, "y": 0.7054943701882039}, {"type": "position", "time": 6212, "x": 1.200004500016875, "y": 0.7054943701882039}, {"type": "position", "time": 6261, "x": 1.200004500016875, "y": 0.7054943701882039}, {"type": "position", "time": 6312, "x": 1.200004500016875, "y": 0.7054943701882039}, {"type": "position", "time": 6361, "x": 1.200004500016875, "y": 0.7054943701882039}, {"type": "position", "time": 6411, "x": 1.200004500016875, "y": 0.7054943701882039}, {"type": "position", "time": 6461, "x": 1.200004500016875, "y": 0.7054943701882039}, {"type": "position", "time": 6511, "x": 1.200004500016875, "y": 0.7054943701882039}, {"type": "position", "time": 6561, "x": 1.200004500016875, "y": 0.7054943701882039}, {"type": "position", "time": 6611, "x": 1.200004500016875, "y": 0.7054943701882039}, {"type": "position", "time": 6662, "x": 1.200004500016875, "y": 0.7054943701882039}, {"type": "position", "time": 6712, "x": 1.200004500016875, "y": 0.7054943701882039}, {"type": "position", "time": 6761, "x": 1.200004500016875, "y": 0.7054943701882039}, {"type": "position", "time": 6811, "x": 1.200004500016875, "y": 0.7054943701882039}, {"type": "position", "time": 6861, "x": 1.200004500016875, "y": 0.7054943701882039}, {"type": "position", "time": 6911, "x": 1.200004500016875, "y": 0.7054943701882039}, {"type": "position", "time": 6961, "x": 1.200004500016875, "y": 0.7054943701882039}, {"type": "click", "time": 6996, "x": 1.200004500016875, "y": 0.7054943701882039}, {"type": "position", "time": 7011, "x": 1.200004500016875, "y": 0.7054943701882039}, {"type": "position", "time": 7061, "x": 1.200004500016875, "y": 0.7054943701882039}, {"type": "position", "time": 7111, "x": 1.200004500016875, "y": 0.7054943701882039}, {"type": "position", "time": 7161, "x": 1.200004500016875, "y": 0.7054943701882039}, {"type": "position", "time": 7211, "x": 1.200004500016875, "y": 0.7054943701882039}, {"type": "position", "time": 7261, "x": 1.200004500016875, "y": 0.7054943701882039}, {"type": "position", "time": 7312, "x": 1.1962544859543225, "y": 0.6855275483904246}, {"type": "position", "time": 7361, "x": 1.1925044718917697, "y": 0.6589051193267188}, {"type": "position", "time": 7411, "x": 1.1887544578292168, "y": 0.6356104938959762}, {"type": "position", "time": 7461, "x": 1.1875044531416994, "y": 0.6089880648322704}, {"type": "position", "time": 7511, "x": 1.1875044531416994, "y": 0.5956768503004175}, {"type": "position", "time": 7561, "x": 1.1875044531416994, "y": 0.5840295375850463}, {"type": "position", "time": 7611, "x": 1.1875044531416994, "y": 0.5657266176037484}, {"type": "position", "time": 7661, "x": 1.1875044531416994, "y": 0.5507515012554139}, {"type": "position", "time": 7711, "x": 1.1875044531416994, "y": 0.5457597958059691}, {"type": "position", "time": 7762, "x": 1.1875044531416994, "y": 0.5407680903565243}, {"type": "position", "time": 7811, "x": 1.1875044531416994, "y": 0.5391041885400427}, {"type": "position", "time": 7861, "x": 1.1875044531416994, "y": 0.5391041885400427}, {"type": "position", "time": 7911, "x": 1.1875044531416994, "y": 0.5391041885400427}, {"type": "position", "time": 7962, "x": 1.1875044531416994, "y": 0.5391041885400427}, {"type": "position", "time": 8011, "x": 1.1875044531416994, "y": 0.5391041885400427}, {"type": "position", "time": 8061, "x": 1.1875044531416994, "y": 0.5391041885400427}, {"type": "position", "time": 8111, "x": 1.1875044531416994, "y": 0.5391041885400427}, {"type": "position", "time": 8161, "x": 1.1875044531416994, "y": 0.5391041885400427}, {"type": "click", "time": 8182, "x": 1.1875044531416994, "y": 0.5391041885400427}, {"type": "position", "time": 8211, "x": 1.1875044531416994, "y": 0.5391041885400427}, {"type": "position", "time": 8261, "x": 1.1875044531416994, "y": 0.5391041885400427}, {"type": "position", "time": 8311, "x": 1.1875044531416994, "y": 0.5391041885400427}, {"type": "position", "time": 8362, "x": 1.1875044531416994, "y": 0.5391041885400427}, {"type": "position", "time": 8411, "x": 1.1875044531416994, "y": 0.5391041885400427}, {"type": "position", "time": 8461, "x": 1.1875044531416994, "y": 0.5391041885400427}, {"type": "position", "time": 8511, "x": 1.1875044531416994, "y": 0.5391041885400427}, {"type": "position", "time": 8561, "x": 1.1875044531416994, "y": 0.5391041885400427}, {"type": "position", "time": 8611, "x": 1.1875044531416994, "y": 0.5391041885400427}, {"type": "position", "time": 8661, "x": 1.1875044531416994, "y": 0.5391041885400427}, {"type": "position", "time": 8712, "x": 1.1875044531416994, "y": 0.5391041885400427}, {"type": "position", "time": 8761, "x": 1.1875044531416994, "y": 0.5391041885400427}, {"type": "position", "time": 8811, "x": 1.1875044531416994, "y": 0.5391041885400427}, {"type": "position", "time": 8861, "x": 1.1875044531416994, "y": 0.5391041885400427}, {"type": "position", "time": 8911, "x": 1.1875044531416994, "y": 0.5391041885400427}, {"type": "position", "time": 8962, "x": 1.1875044531416994, "y": 0.5391041885400427}, {"type": "position", "time": 9011, "x": 1.1875044531416994, "y": 0.5391041885400427}, {"type": "position", "time": 9061, "x": 1.1875044531416994, "y": 0.5391041885400427}, {"type": "position", "time": 9111, "x": 1.1875044531416994, "y": 0.5391041885400427}, {"type": "position", "time": 9161, "x": 1.1875044531416994, "y": 0.5391041885400427}, {"type": "position", "time": 9211, "x": 1.1875044531416994, "y": 0.5391041885400427}, {"type": "position", "time": 9261, "x": 1.1875044531416994, "y": 0.5391041885400427}, {"type": "position", "time": 9312, "x": 1.1875044531416994, "y": 0.5391041885400427}, {"type": "position", "time": 9361, "x": 1.1875044531416994, "y": 0.5391041885400427}, {"type": "position", "time": 9411, "x": 1.1875044531416994, "y": 0.5391041885400427}, {"type": "position", "time": 9461, "x": 1.1875044531416994, "y": 0.5391041885400427}, {"type": "position", "time": 9511, "x": 1.1875044531416994, "y": 0.5391041885400427}, {"type": "position", "time": 9562, "x": 1.1875044531416994, "y": 0.5391041885400427}, {"type": "position", "time": 9611, "x": 1.1875044531416994, "y": 0.5391041885400427}, {"type": "position", "time": 9661, "x": 1.1875044531416994, "y": 0.5391041885400427}, {"type": "position", "time": 9711, "x": 1.1875044531416994, "y": 0.5391041885400427}, {"type": "position", "time": 9761, "x": 1.1875044531416994, "y": 0.5391041885400427}, {"type": "position", "time": 9811, "x": 1.1875044531416994, "y": 0.5391041885400427}, {"type": "position", "time": 9861, "x": 1.1875044531416994, "y": 0.5391041885400427}, {"type": "position", "time": 9912, "x": 1.1875044531416994, "y": 0.5391041885400427}, {"type": "position", "time": 9961, "x": 1.1875044531416994, "y": 0.5391041885400427}, {"type": "position", "time": 10011, "x": 1.1875044531416994, "y": 0.5391041885400427}, {"type": "position", "time": 10061, "x": 1.1875044531416994, "y": 0.5391041885400427}, {"type": "position", "time": 10111, "x": 1.1875044531416994, "y": 0.5391041885400427}, {"type": "position", "time": 10161, "x": 1.1875044531416994, "y": 0.5391041885400427}, {"type": "position", "time": 10211, "x": 1.1875044531416994, "y": 0.5391041885400427}, {"type": "position", "time": 10261, "x": 1.1875044531416994, "y": 0.5391041885400427}, {"type": "position", "time": 10311, "x": 1.1875044531416994, "y": 0.5307846794576346}, {"type": "position", "time": 10361, "x": 1.1875044531416994, "y": 0.5307846794576346}, {"type": "position", "time": 10412, "x": 1.1875044531416994, "y": 0.5307846794576346}, {"type": "position", "time": 10461, "x": 1.1875044531416994, "y": 0.5307846794576346}, {"type": "position", "time": 10511, "x": 1.1875044531416994, "y": 0.5307846794576346}, {"type": "position", "time": 10561, "x": 1.1875044531416994, "y": 0.5307846794576346}, {"type": "position", "time": 10611, "x": 1.1875044531416994, "y": 0.5307846794576346}, {"type": "position", "time": 10661, "x": 1.1875044531416994, "y": 0.5307846794576346}, {"type": "position", "time": 10711, "x": 1.1875044531416994, "y": 0.5307846794576346}, {"type": "position", "time": 10761, "x": 1.1875044531416994, "y": 0.5307846794576346}, {"type": "position", "time": 10811, "x": 1.1875044531416994, "y": 0.5307846794576346}, {"type": "position", "time": 10861, "x": 1.1875044531416994, "y": 0.5307846794576346}, {"type": "position", "time": 10912, "x": 1.1875044531416994, "y": 0.5307846794576346}, {"type": "position", "time": 10961, "x": 1.1875044531416994, "y": 0.5307846794576346}, {"type": "position", "time": 11012, "x": 1.1875044531416994, "y": 0.5307846794576346}, {"type": "position", "time": 11061, "x": 1.1875044531416994, "y": 0.5307846794576346}, {"type": "position", "time": 11111, "x": 1.1875044531416994, "y": 0.5307846794576346}, {"type": "position", "time": 11161, "x": 1.1875044531416994, "y": 0.5307846794576346}, {"type": "position", "time": 11211, "x": 1.1875044531416994, "y": 0.5307846794576346}, {"type": "position", "time": 11262, "x": 1.1875044531416994, "y": 0.5307846794576346}, {"type": "position", "time": 11311, "x": 1.1875044531416994, "y": 0.5307846794576346}, {"type": "position", "time": 11362, "x": 1.1875044531416994, "y": 0.5307846794576346}, {"type": "position", "time": 11411, "x": 1.1875044531416994, "y": 0.5307846794576346}, {"type": "position", "time": 11461, "x": 1.1875044531416994, "y": 0.5307846794576346}, {"type": "position", "time": 11511, "x": 1.1875044531416994, "y": 0.5307846794576346}, {"type": "position", "time": 11561, "x": 1.1875044531416994, "y": 0.5307846794576346}, {"type": "position", "time": 11612, "x": 1.1875044531416994, "y": 0.5307846794576346}, {"type": "position", "time": 11662, "x": 1.1875044531416994, "y": 0.5307846794576346}, {"type": "position", "time": 11711, "x": 1.1875044531416994, "y": 0.5307846794576346}, {"type": "position", "time": 11761, "x": 1.1875044531416994, "y": 0.5307846794576346}, {"type": "position", "time": 11811, "x": 1.1875044531416994, "y": 0.5307846794576346}, {"type": "position", "time": 11861, "x": 1.1875044531416994, "y": 0.5307846794576346}, {"type": "position", "time": 11911, "x": 1.1875044531416994, "y": 0.5307846794576346}, {"type": "position", "time": 11961, "x": 1.1875044531416994, "y": 0.5307846794576346}, {"type": "position", "time": 12011, "x": 1.1875044531416994, "y": 0.5307846794576346}, {"type": "keyup", "time": 12039, "key": "H", "keyCode": 72}, {"type": "keyup", "time": 12042, "key": "\u0010", "keyCode": 16}, {"type": "position", "time": 12061, "x": 1.1875044531416994, "y": 0.5307846794576346}, {"type": "position", "time": 12112, "x": 1.1875044531416994, "y": 0.5307846794576346}, {"type": "position", "time": 12161, "x": 1.1875044531416994, "y": 0.5307846794576346}, {"type": "position", "time": 12211, "x": 1.1875044531416994, "y": 0.5307846794576346}, {"type": "position", "time": 12261, "x": 1.1875044531416994, "y": 0.5307846794576346}, {"type": "keyup", "time": 12305, "key": "E", "keyCode": 69}, {"type": "position", "time": 12311, "x": 1.1875044531416994, "y": 0.5307846794576346}, {"type": "position", "time": 12361, "x": 1.1875044531416994, "y": 0.5307846794576346}, {"type": "position", "time": 12411, "x": 1.1875044531416994, "y": 0.5307846794576346}, {"type": "position", "time": 12462, "x": 1.1875044531416994, "y": 0.5307846794576346}, {"type": "keyup", "time": 12467, "key": " ", "keyCode": 32}, {"type": "position", "time": 12511, "x": 1.1875044531416994, "y": 0.5307846794576346}, {"type": "position", "time": 12561, "x": 1.1875044531416994, "y": 0.5307846794576346}, {"type": "position", "time": 12612, "x": 1.1875044531416994, "y": 0.5307846794576346}, {"type": "keyup", "time": 12644, "key": "W", "keyCode": 87}, {"type": "position", "time": 12662, "x": 1.1875044531416994, "y": 0.5307846794576346}, {"type": "position", "time": 12711, "x": 1.1875044531416994, "y": 0.5307846794576346}, {"type": "position", "time": 12761, "x": 1.1875044531416994, "y": 0.5307846794576346}, {"type": "position", "time": 12811, "x": 1.1875044531416994, "y": 0.5307846794576346}, {"type": "position", "time": 12861, "x": 1.1875044531416994, "y": 0.5307846794576346}, {"type": "position", "time": 12911, "x": 1.1875044531416994, "y": 0.5307846794576346}, {"type": "keyup", "time": 12919, "key": "\b", "keyCode": 8}, {"type": "position", "time": 12961, "x": 1.1875044531416994, "y": 0.5307846794576346}, {"type": "position", "time": 13011, "x": 1.1875044531416994, "y": 0.5307846794576346}, {"type": "position", "time": 13061, "x": 1.1875044531416994, "y": 0.5307846794576346}, {"type": "position", "time": 13111, "x": 1.1875044531416994, "y": 0.5307846794576346}, {"type": "keyup", "time": 13133, "key": "I", "keyCode": 73}, {"type": "position", "time": 13161, "x": 1.1875044531416994, "y": 0.5307846794576346}, {"type": "keyup", "time": 13195, "key": "S", "keyCode": 83}, {"type": "position", "time": 13211, "x": 1.1875044531416994, "y": 0.5307846794576346}, {"type": "position", "time": 13261, "x": 1.1875044531416994, "y": 0.5307846794576346}, {"type": "keyup", "time": 13305, "key": " ", "keyCode": 32}, {"type": "position", "time": 13311, "x": 1.1875044531416994, "y": 0.5307846794576346}, {"type": "position", "time": 13361, "x": 1.1875044531416994, "y": 0.5307846794576346}, {"type": "position", "time": 13411, "x": 1.1875044531416994, "y": 0.5307846794576346}, {"type": "position", "time": 13461, "x": 1.1875044531416994, "y": 0.5307846794576346}, {"type": "keyup", "time": 13504, "key": "S", "keyCode": 83}, {"type": "position", "time": 13511, "x": 1.1875044531416994, "y": 0.5307846794576346}, {"type": "position", "time": 13561, "x": 1.1875044531416994, "y": 0.5307846794576346}, {"type": "position", "time": 13611, "x": 1.1875044531416994, "y": 0.5307846794576346}, {"type": "position", "time": 13661, "x": 1.1875044531416994, "y": 0.5307846794576346}, {"type": "position", "time": 13711, "x": 1.1875044531416994, "y": 0.5307846794576346}, {"type": "position", "time": 13761, "x": 1.1875044531416994, "y": 0.5307846794576346}, {"type": "position", "time": 13811, "x": 1.1875044531416994, "y": 0.5307846794576346}, {"type": "keyup", "time": 13839, "key": "\b", "keyCode": 8}, {"type": "position", "time": 13861, "x": 1.1875044531416994, "y": 0.5307846794576346}, {"type": "position", "time": 13912, "x": 1.1875044531416994, "y": 0.5307846794576346}, {"type": "position", "time": 13961, "x": 1.1875044531416994, "y": 0.5307846794576346}, {"type": "position", "time": 14012, "x": 1.1875044531416994, "y": 0.5307846794576346}, {"type": "position", "time": 14061, "x": 1.1875044531416994, "y": 0.5307846794576346}, {"type": "position", "time": 14111, "x": 1.1875044531416994, "y": 0.5307846794576346}, {"type": "keyup", "time": 14153, "key": "S", "keyCode": 83}, {"type": "position", "time": 14161, "x": 1.1875044531416994, "y": 0.5307846794576346}, {"type": "position", "time": 14211, "x": 1.1875044531416994, "y": 0.5307846794576346}, {"type": "keyup", "time": 14256, "key": "M", "keyCode": 77}, {"type": "position", "time": 14261, "x": 1.1875044531416994, "y": 0.5307846794576346}, {"type": "position", "time": 14311, "x": 1.1875044531416994, "y": 0.5307846794576346}, {"type": "position", "time": 14361, "x": 1.1875044531416994, "y": 0.5307846794576346}, {"type": "position", "time": 14411, "x": 1.1875044531416994, "y": 0.5307846794576346}, {"type": "keyup", "time": 14423, "key": "A", "keyCode": 65}, {"type": "position", "time": 14461, "x": 1.1875044531416994, "y": 0.5307846794576346}, {"type": "position", "time": 14511, "x": 1.1875044531416994, "y": 0.5307846794576346}, {"type": "keyup", "time": 14514, "key": "R", "keyCode": 82}, {"type": "position", "time": 14561, "x": 1.1875044531416994, "y": 0.5307846794576346}, {"type": "position", "time": 14611, "x": 1.1875044531416994, "y": 0.5307846794576346}, {"type": "position", "time": 14661, "x": 1.1875044531416994, "y": 0.5307846794576346}, {"type": "keyup", "time": 14674, "key": "T", "keyCode": 84}, {"type": "position", "time": 14711, "x": 1.1875044531416994, "y": 0.5307846794576346}, {"type": "position", "time": 14761, "x": 1.1875044531416994, "y": 0.5307846794576346}, {"type": "position", "time": 14811, "x": 1.1875044531416994, "y": 0.5307846794576346}, {"type": "position", "time": 14861, "x": 1.1875044531416994, "y": 0.5307846794576346}, {"type": "keyup", "time": 14874, "key": "\t", "keyCode": 9}, {"type": "position", "time": 14911, "x": 1.1875044531416994, "y": 0.5307846794576346}, {"type": "keyup", "time": 14939, "key": " ", "keyCode": 32}, {"type": "click", "time": 14948, "x": 1.1875044531416994, "y": 0.5307846794576346}, {"type": "position", "time": 14961, "x": 1.1875044531416994, "y": 0.5307846794576346}, {"type": "position", "time": 15011, "x": 1.1875044531416994, "y": 0.5307846794576346}, {"type": "position", "time": 15061, "x": 1.1875044531416994, "y": 0.5307846794576346}, {"type": "position", "time": 15112, "x": 1.1875044531416994, "y": 0.5307846794576346}, {"type": "position", "time": 15161, "x": 1.1875044531416994, "y": 0.5307846794576346}, {"type": "position", "time": 15211, "x": 1.1875044531416994, "y": 0.5307846794576346}, {"type": "position", "time": 15261, "x": 1.1875044531416994, "y": 0.5307846794576346}, {"type": "position", "time": 15311, "x": 1.1875044531416994, "y": 0.5307846794576346}, {"type": "position", "time": 15361, "x": 1.1875044531416994, "y": 0.5307846794576346}, {"type": "position", "time": 15411, "x": 1.1875044531416994, "y": 0.5307846794576346}, {"type": "position", "time": 15461, "x": 1.1875044531416994, "y": 0.5307846794576346}, {"type": "position", "time": 15511, "x": 1.1875044531416994, "y": 0.5307846794576346}, {"type": "position", "time": 15561, "x": 1.1875044531416994, "y": 0.5307846794576346}, {"type": "position", "time": 15612, "x": 1.1875044531416994, "y": 0.5307846794576346}, {"type": "position", "time": 15661, "x": 1.1875044531416994, "y": 0.5307846794576346}, {"type": "position", "time": 15711, "x": 1.1875044531416994, "y": 0.5307846794576346}, {"type": "position", "time": 15761, "x": 1.1875044531416994, "y": 0.5307846794576346}, {"type": "position", "time": 15812, "x": 1.1875044531416994, "y": 0.5307846794576346}, {"type": "position", "time": 15861, "x": 1.1875044531416994, "y": 0.5307846794576346}, {"type": "position", "time": 15911, "x": 1.1875044531416994, "y": 0.5307846794576346}, {"type": "position", "time": 15961, "x": 1.1875044531416994, "y": 0.5307846794576346}, {"type": "position", "time": 16011, "x": 1.1875044531416994, "y": 0.5307846794576346}, {"type": "position", "time": 16061, "x": 1.1875044531416994, "y": 0.5307846794576346}, {"type": "position", "time": 16111, "x": 1.1875044531416994, "y": 0.5307846794576346}, {"type": "position", "time": 16161, "x": 1.1875044531416994, "y": 0.5307846794576346}, {"type": "position", "time": 16211, "x": 1.1875044531416994, "y": 0.5307846794576346}, {"type": "position", "time": 16261, "x": 1.1875044531416994, "y": 0.5307846794576346}, {"type": "position", "time": 16311, "x": 1.1875044531416994, "y": 0.5307846794576346}, {"type": "position", "time": 16361, "x": 1.1875044531416994, "y": 0.5307846794576346}, {"type": "position", "time": 16411, "x": 1.1875044531416994, "y": 0.5307846794576346}, {"type": "position", "time": 16461, "x": 1.1875044531416994, "y": 0.5307846794576346}, {"type": "position", "time": 16511, "x": 1.1875044531416994, "y": 0.5307846794576346}, {"type": "position", "time": 16561, "x": 1.1875044531416994, "y": 0.5307846794576346}, {"type": "position", "time": 16611, "x": 1.1875044531416994, "y": 0.5307846794576346}, {"type": "position", "time": 16662, "x": 1.1875044531416994, "y": 0.5307846794576346}, {"type": "position", "time": 16711, "x": 1.1875044531416994, "y": 0.5307846794576346}, {"type": "position", "time": 16761, "x": 1.1875044531416994, "y": 0.5307846794576346}, {"type": "position", "time": 16811, "x": 1.1875044531416994, "y": 0.5407680903565243}, {"type": "position", "time": 16862, "x": 1.1837544390791466, "y": 0.5640627157872669}, {"type": "position", "time": 16911, "x": 1.1875044531416994, "y": 0.6089880648322704}, {"type": "position", "time": 16961, "x": 1.200004500016875, "y": 0.6489217084278291}, {"type": "position", "time": 17012, "x": 1.2112545422045333, "y": 0.683863646573943}, {"type": "position", "time": 17061, "x": 1.2225045843921916, "y": 0.7005026647387591}, {"type": "position", "time": 17111, "x": 1.2512546922050958, "y": 0.713813879270612}, {"type": "position", "time": 17161, "x": 1.253754701580131, "y": 0.713813879270612}, {"type": "position", "time": 17211, "x": 1.253754701580131, "y": 0.713813879270612}, {"type": "position", "time": 17261, "x": 1.253754701580131, "y": 0.713813879270612}, {"type": "position", "time": 17312, "x": 1.253754701580131, "y": 0.7054943701882039}, {"type": "position", "time": 17361, "x": 1.253754701580131, "y": 0.7038304683717224}, {"type": "position", "time": 17411, "x": 1.253754701580131, "y": 0.7038304683717224}, {"type": "click", "time": 17442, "x": 1.253754701580131, "y": 0.7038304683717224}, {"type": "position", "time": 17461, "x": 1.253754701580131, "y": 0.7038304683717224}, {"type": "position", "time": 17511, "x": 1.253754701580131, "y": 0.7005026647387591}, {"type": "position", "time": 17561, "x": 1.253754701580131, "y": 0.7005026647387591}, {"type": "position", "time": 17612, "x": 1.253754701580131, "y": 0.7005026647387591}, {"type": "position", "time": 17661, "x": 1.253754701580131, "y": 0.7005026647387591}, {"type": "position", "time": 17711, "x": 1.253754701580131, "y": 0.7005026647387591}, {"type": "position", "time": 17761, "x": 1.253754701580131, "y": 0.6988387629222775}, {"type": "position", "time": 17811, "x": 1.2375046406424024, "y": 0.6938470574728327}, {"type": "position", "time": 17861, "x": 1.2250045937672267, "y": 0.6905192538398695}, {"type": "position", "time": 17911, "x": 1.2250045937672267, "y": 0.6888553520233879}, {"type": "slider", "time": 17936, "value": 0.51}, {"type": "slider", "time": 17954, "value": 0.5}, {"type": "position", "time": 17961, "x": 1.2225045843921916, "y": 0.6855275483904246}, {"type": "position", "time": 18011, "x": 1.2225045843921916, "y": 0.6855275483904246}, {"type": "click", "time": 18031, "x": 1.2225045843921916, "y": 0.6855275483904246}, {"type": "position", "time": 18062, "x": 1.2225045843921916, "y": 0.6855275483904246}, {"type": "position", "time": 18111, "x": 1.2225045843921916, "y": 0.6855275483904246}, {"type": "position", "time": 18161, "x": 1.2225045843921916, "y": 0.6855275483904246}, {"type": "position", "time": 18212, "x": 1.2225045843921916, "y": 0.7005026647387591}, {"type": "position", "time": 18261, "x": 1.2225045843921916, "y": 0.7104860756376489}, {"type": "position", "time": 18311, "x": 1.2225045843921916, "y": 0.7304528974354282}, {"type": "position", "time": 18361, "x": 1.2225045843921916, "y": 0.7687226392145052}, {"type": "position", "time": 18411, "x": 1.2225045843921916, "y": 0.778706050113395}, {"type": "position", "time": 18461, "x": 1.2225045843921916, "y": 0.778706050113395}, {"type": "position", "time": 18511, "x": 1.2225045843921916, "y": 0.7803699519298766}, {"type": "position", "time": 18561, "x": 1.2225045843921916, "y": 0.7803699519298766}, {"type": "click", "time": 18616, "x": 1.2225045843921916, "y": 0.7853616573793214}, {"type": "position", "time": 18622, "x": 1.2225045843921916, "y": 0.7853616573793214}, {"type": "position", "time": 18661, "x": 1.2225045843921916, "y": 0.7853616573793214}, {"type": "position", "time": 18711, "x": 1.2225045843921916, "y": 0.7853616573793214}, {"type": "position", "time": 18761, "x": 1.2225045843921916, "y": 0.7853616573793214}, {"type": "position", "time": 18811, "x": 1.2225045843921916, "y": 0.7853616573793214}, {"type": "position", "time": 18861, "x": 1.2225045843921916, "y": 0.7853616573793214}, {"type": "position", "time": 18911, "x": 1.2225045843921916, "y": 0.7853616573793214}, {"type": "position", "time": 18962, "x": 1.2187545703296387, "y": 0.7836977555628398}, {"type": "position", "time": 19011, "x": 1.1987544953293576, "y": 0.7154777810870937}, {"type": "position", "time": 19061, "x": 1.1837544390791466, "y": 0.6339465920794947}, {"type": "position", "time": 19111, "x": 1.1762544109540412, "y": 0.6189714757311601}, {"type": "position", "time": 19161, "x": 1.1762544109540412, "y": 0.6089880648322704}, {"type": "position", "time": 19211, "x": 1.1762544109540412, "y": 0.5956768503004175}, {"type": "position", "time": 19261, "x": 1.1762544109540412, "y": 0.580701733952083}, {"type": "slider", "time": 19311, "value": 0.43}, {"type": "position", "time": 19313, "x": 1.1762544109540412, "y": 0.5790378321356013}, {"type": "position", "time": 19361, "x": 1.1762544109540412, "y": 0.5790378321356013}, {"type": "click", "time": 19407, "x": 1.1762544109540412, "y": 0.5790378321356013}, {"type": "position", "time": 19411, "x": 1.1762544109540412, "y": 0.5790378321356013}, {"type": "position", "time": 19461, "x": 1.1762544109540412, "y": 0.5790378321356013}, {"type": "position", "time": 19511, "x": 1.1762544109540412, "y": 0.5790378321356013}, {"type": "position", "time": 19561, "x": 1.1762544109540412, "y": 0.5790378321356013}, {"type": "position", "time": 19612, "x": 1.1762544109540412, "y": 0.5790378321356013}, {"type": "position", "time": 19661, "x": 1.1775044156415586, "y": 0.5790378321356013}, {"type": "position", "time": 19711, "x": 1.1837544390791466, "y": 0.5890212430344911}, {"type": "position", "time": 19761, "x": 1.1875044531416994, "y": 0.6189714757311601}, {"type": "position", "time": 19811, "x": 1.1850044437666643, "y": 0.6356104938959762}, {"type": "position", "time": 19861, "x": 1.1850044437666643, "y": 0.6356104938959762}, {"type": "position", "time": 19911, "x": 1.1837544390791466, "y": 0.6356104938959762}, {"type": "position", "time": 19961, "x": 1.1837544390791466, "y": 0.6389382975289395}, {"type": "position", "time": 20011, "x": 1.1837544390791466, "y": 0.6389382975289395}, {"type": "position", "time": 20061, "x": 1.1837544390791466, "y": 0.6389382975289395}, {"type": "position", "time": 20111, "x": 1.1837544390791466, "y": 0.6389382975289395}, {"type": "position", "time": 20161, "x": 1.1837544390791466, "y": 0.6389382975289395}, {"type": "position", "time": 20211, "x": 1.1837544390791466, "y": 0.6389382975289395}, {"type": "position", "time": 20261, "x": 1.1837544390791466, "y": 0.6389382975289395}, {"type": "position", "time": 20311, "x": 1.1837544390791466, "y": 0.6389382975289395}, {"type": "position", "time": 20361, "x": 1.1837544390791466, "y": 0.6389382975289395}, {"type": "position", "time": 20411, "x": 1.1837544390791466, "y": 0.6389382975289395}, {"type": "position", "time": 20461, "x": 1.1837544390791466, "y": 0.6389382975289395}, {"type": "position", "time": 20511, "x": 1.1837544390791466, "y": 0.6389382975289395}, {"type": "position", "time": 20561, "x": 1.1837544390791466, "y": 0.6389382975289395}, {"type": "position", "time": 20611, "x": 1.1837544390791466, "y": 0.6389382975289395}, {"type": "position", "time": 20661, "x": 1.1812544297041114, "y": 0.6406021993454211}, {"type": "position", "time": 20711, "x": 1.1812544297041114, "y": 0.6439300029783843}, {"type": "position", "time": 20761, "x": 1.1812544297041114, "y": 0.6439300029783843}, {"type": "position", "time": 20811, "x": 1.1812544297041114, "y": 0.6439300029783843}, {"type": "position", "time": 20863, "x": 1.180004425016594, "y": 0.6439300029783843}, {"type": "position", "time": 20911, "x": 1.180004425016594, "y": 0.6439300029783843}, {"type": "position", "time": 20961, "x": 1.180004425016594, "y": 0.6439300029783843}, {"type": "position", "time": 21011, "x": 1.1762544109540412, "y": 0.6455939047948659}, {"type": "position", "time": 21061, "x": 1.1575043406412775, "y": 0.6589051193267188}, {"type": "position", "time": 21111, "x": 1.1237542140783028, "y": 0.6788719411244982}, {"type": "position", "time": 21161, "x": 1.0650039937649767, "y": 0.6905192538398695}, {"type": "position", "time": 21211, "x": 1.0237538390768965, "y": 0.7005026647387591}, {"type": "position", "time": 21261, "x": 1.0187538203268263, "y": 0.7005026647387591}, {"type": "position", "time": 21311, "x": 1.0112537922017208, "y": 0.7054943701882039}, {"type": "position", "time": 21361, "x": 0.9600036000135, "y": 0.7204694865365385}, {"type": "position", "time": 21411, "x": 0.8962533609501037, "y": 0.7337807010683914}, {"type": "position", "time": 21461, "x": 0.8875033281374806, "y": 0.735444602884873}, {"type": "position", "time": 21511, "x": 0.8875033281374806, "y": 0.735444602884873}, {"type": "position", "time": 21561, "x": 0.8875033281374806, "y": 0.735444602884873}, {"type": "position", "time": 21611, "x": 0.8875033281374806, "y": 0.735444602884873}, {"type": "position", "time": 21661, "x": 0.8875033281374806, "y": 0.735444602884873}, {"type": "position", "time": 21711, "x": 0.8875033281374806, "y": 0.735444602884873}, {"type": "position", "time": 21761, "x": 0.8875033281374806, "y": 0.735444602884873}, {"type": "position", "time": 21811, "x": 0.8875033281374806, "y": 0.735444602884873}, {"type": "position", "time": 21861, "x": 0.8912533422000333, "y": 0.7454280137837627}, {"type": "position", "time": 21911, "x": 0.9037533890752091, "y": 0.7637309337650604}, {"type": "position", "time": 21961, "x": 0.9037533890752091, "y": 0.7637309337650604}, {"type": "position", "time": 22011, "x": 0.9037533890752091, "y": 0.7637309337650604}, {"type": "position", "time": 22061, "x": 0.9037533890752091, "y": 0.7637309337650604}, {"type": "position", "time": 22112, "x": 0.9037533890752091, "y": 0.7637309337650604}, {"type": "position", "time": 22161, "x": 0.9037533890752091, "y": 0.7637309337650604}, {"type": "position", "time": 22211, "x": 0.9037533890752091, "y": 0.7637309337650604}, {"type": "position", "time": 22261, "x": 0.9037533890752091, "y": 0.7637309337650604}, {"type": "position", "time": 22312, "x": 0.9037533890752091, "y": 0.7637309337650604}, {"type": "position", "time": 22361, "x": 0.9037533890752091, "y": 0.7637309337650604}, {"type": "position", "time": 22411, "x": 0.9037533890752091, "y": 0.7637309337650604}, {"type": "position", "time": 22461, "x": 0.9037533890752091, "y": 0.7637309337650604}, {"type": "position", "time": 22512, "x": 0.9037533890752091, "y": 0.7637309337650604}, {"type": "position", "time": 22561, "x": 0.9037533890752091, "y": 0.7637309337650604}, {"type": "position", "time": 22611, "x": 0.9037533890752091, "y": 0.7637309337650604}, {"type": "position", "time": 22661, "x": 0.9037533890752091, "y": 0.7637309337650604}, {"type": "position", "time": 22711, "x": 0.9037533890752091, "y": 0.7637309337650604}, {"type": "position", "time": 22762, "x": 0.9037533890752091, "y": 0.7637309337650604}, {"type": "position", "time": 22811, "x": 0.9037533890752091, "y": 0.7637309337650604}, {"type": "position", "time": 22861, "x": 0.9037533890752091, "y": 0.7637309337650604}, {"type": "position", "time": 22911, "x": 0.9037533890752091, "y": 0.7637309337650604}, {"type": "position", "time": 22961, "x": 0.9037533890752091, "y": 0.7637309337650604}, {"type": "position", "time": 23012, "x": 0.9037533890752091, "y": 0.7637309337650604}, {"type": "position", "time": 23061, "x": 0.9037533890752091, "y": 0.7637309337650604}, {"type": "position", "time": 23112, "x": 0.9037533890752091, "y": 0.7637309337650604}, {"type": "position", "time": 23161, "x": 0.9037533890752091, "y": 0.7637309337650604}, {"type": "position", "time": 23211, "x": 0.9037533890752091, "y": 0.7637309337650604}, {"type": "position", "time": 23262, "x": 0.9037533890752091, "y": 0.7637309337650604}, {"type": "position", "time": 23311, "x": 0.9037533890752091, "y": 0.7637309337650604}, {"type": "position", "time": 23362, "x": 0.9037533890752091, "y": 0.7637309337650604}, {"type": "position", "time": 23411, "x": 0.9037533890752091, "y": 0.7637309337650604}, {"type": "position", "time": 23461, "x": 0.9037533890752091, "y": 0.7637309337650604}, {"type": "position", "time": 23511, "x": 0.9037533890752091, "y": 0.7637309337650604}, {"type": "position", "time": 23561, "x": 0.9037533890752091, "y": 0.7637309337650604}, {"type": "position", "time": 23611, "x": 0.9037533890752091, "y": 0.7637309337650604}, {"type": "position", "time": 23661, "x": 0.9037533890752091, "y": 0.7637309337650604}, {"type": "position", "time": 23711, "x": 0.9037533890752091, "y": 0.7637309337650604}, {"type": "position", "time": 23762, "x": 0.9037533890752091, "y": 0.7637309337650604}, {"type": "position", "time": 23811, "x": 0.9037533890752091, "y": 0.7637309337650604}, {"type": "position", "time": 23861, "x": 0.9037533890752091, "y": 0.7637309337650604}, {"type": "position", "time": 23911, "x": 0.9037533890752091, "y": 0.7637309337650604}, {"type": "position", "time": 23961, "x": 0.9037533890752091, "y": 0.7637309337650604}, {"type": "position", "time": 24011, "x": 0.9037533890752091, "y": 0.7637309337650604}, {"type": "position", "time": 24061, "x": 0.9037533890752091, "y": 0.7637309337650604}, {"type": "position", "time": 24111, "x": 0.9037533890752091, "y": 0.7637309337650604}, {"type": "position", "time": 24161, "x": 0.9037533890752091, "y": 0.7637309337650604}, {"type": "position", "time": 24211, "x": 0.9037533890752091, "y": 0.7637309337650604}, {"type": "position", "time": 24262, "x": 0.9037533890752091, "y": 0.7637309337650604}, {"type": "position", "time": 24311, "x": 0.9037533890752091, "y": 0.7637309337650604}, {"type": "position", "time": 24361, "x": 0.9037533890752091, "y": 0.7637309337650604}, {"type": "position", "time": 24411, "x": 0.9037533890752091, "y": 0.7637309337650604}, {"type": "position", "time": 24461, "x": 0.9037533890752091, "y": 0.7637309337650604}, {"type": "position", "time": 24512, "x": 0.9037533890752091, "y": 0.7637309337650604}, {"type": "position", "time": 24561, "x": 0.9037533890752091, "y": 0.7637309337650604}, {"type": "position", "time": 24611, "x": 0.9037533890752091, "y": 0.7637309337650604}, {"type": "position", "time": 24662, "x": 0.9037533890752091, "y": 0.7637309337650604}, {"type": "position", "time": 24711, "x": 0.9037533890752091, "y": 0.7637309337650604}, {"type": "position", "time": 24762, "x": 0.9037533890752091, "y": 0.7637309337650604}, {"type": "position", "time": 24811, "x": 0.9037533890752091, "y": 0.7637309337650604}, {"type": "position", "time": 24861, "x": 0.9037533890752091, "y": 0.7637309337650604}, {"type": "position", "time": 24912, "x": 0.9037533890752091, "y": 0.7637309337650604}, {"type": "position", "time": 24961, "x": 0.9037533890752091, "y": 0.7637309337650604}, {"type": "position", "time": 25012, "x": 0.9037533890752091, "y": 0.7637309337650604}, {"type": "position", "time": 25061, "x": 0.9037533890752091, "y": 0.7637309337650604}, {"type": "position", "time": 25111, "x": 0.9037533890752091, "y": 0.7637309337650604}, {"type": "position", "time": 25161, "x": 0.9037533890752091, "y": 0.7637309337650604}, {"type": "position", "time": 25211, "x": 0.9037533890752091, "y": 0.7637309337650604}, {"type": "position", "time": 25261, "x": 0.9037533890752091, "y": 0.7637309337650604}, {"type": "position", "time": 25312, "x": 0.9037533890752091, "y": 0.7637309337650604}, {"type": "position", "time": 25361, "x": 0.9037533890752091, "y": 0.7637309337650604}, {"type": "position", "time": 25412, "x": 0.9037533890752091, "y": 0.7637309337650604}, {"type": "position", "time": 25461, "x": 0.9037533890752091, "y": 0.7637309337650604}, {"type": "position", "time": 25511, "x": 0.9037533890752091, "y": 0.7637309337650604}, {"type": "position", "time": 25561, "x": 0.9037533890752091, "y": 0.7637309337650604}, {"type": "position", "time": 25611, "x": 0.9037533890752091, "y": 0.7637309337650604}, {"type": "position", "time": 25661, "x": 0.9037533890752091, "y": 0.7637309337650604}, {"type": "position", "time": 25711, "x": 0.9037533890752091, "y": 0.7637309337650604}, {"type": "position", "time": 25761, "x": 0.9037533890752091, "y": 0.7637309337650604}, {"type": "position", "time": 25811, "x": 0.9037533890752091, "y": 0.7637309337650604}, {"type": "position", "time": 25861, "x": 0.9037533890752091, "y": 0.7637309337650604}, {"type": "position", "time": 25911, "x": 0.9037533890752091, "y": 0.7637309337650604}, {"type": "position", "time": 25961, "x": 0.9037533890752091, "y": 0.7637309337650604}, {"type": "position", "time": 26011, "x": 0.9037533890752091, "y": 0.7637309337650604}, {"type": "position", "time": 26061, "x": 0.9037533890752091, "y": 0.7637309337650604}, {"type": "position", "time": 26111, "x": 0.9037533890752091, "y": 0.7637309337650604}, {"type": "position", "time": 26161, "x": 0.9037533890752091, "y": 0.7637309337650604}, {"type": "position", "time": 26211, "x": 0.9037533890752091, "y": 0.7637309337650604}, {"type": "position", "time": 26261, "x": 0.9037533890752091, "y": 0.7637309337650604}, {"type": "position", "time": 26311, "x": 0.9037533890752091, "y": 0.7604031301320973}, {"type": "position", "time": 26361, "x": 0.9062533984502442, "y": 0.7537475228661707}, {"type": "position", "time": 26411, "x": 0.9112534172003145, "y": 0.7437641119672811}, {"type": "position", "time": 26461, "x": 0.9412535297007364, "y": 0.7204694865365385}, {"type": "position", "time": 26511, "x": 0.9637536140760529, "y": 0.7038304683717224}, {"type": "position", "time": 26561, "x": 1.0537539515773184, "y": 0.6805358429409798}, {"type": "position", "time": 26611, "x": 1.1662543734539006, "y": 0.6688885302256085}, {"type": "position", "time": 26661, "x": 1.1687543828289357, "y": 0.6688885302256085}, {"type": "position", "time": 26711, "x": 1.1687543828289357, "y": 0.6688885302256085}, {"type": "position", "time": 26761, "x": 1.1687543828289357, "y": 0.6688885302256085}, {"type": "position", "time": 26811, "x": 1.1687543828289357, "y": 0.6688885302256085}, {"type": "position", "time": 26861, "x": 1.1687543828289357, "y": 0.6688885302256085}, {"type": "position", "time": 26911, "x": 1.1762544109540412, "y": 0.6788719411244982}, {"type": "position", "time": 26961, "x": 1.1875044531416994, "y": 0.6905192538398695}, {"type": "position", "time": 27011, "x": 1.1987544953293576, "y": 0.6988387629222775}, {"type": "position", "time": 27061, "x": 1.200004500016875, "y": 0.7005026647387591}, {"type": "position", "time": 27111, "x": 1.200004500016875, "y": 0.7005026647387591}, {"type": "position", "time": 27161, "x": 1.200004500016875, "y": 0.7005026647387591}, {"type": "position", "time": 27211, "x": 1.200004500016875, "y": 0.7005026647387591}, {"type": "position", "time": 27261, "x": 1.200004500016875, "y": 0.7005026647387591}, {"type": "position", "time": 27311, "x": 1.200004500016875, "y": 0.7005026647387591}, {"type": "click", "time": 27330, "x": 1.200004500016875, "y": 0.7005026647387591}, {"type": "position", "time": 27362, "x": 1.200004500016875, "y": 0.7005026647387591}, {"type": "position", "time": 27411, "x": 1.200004500016875, "y": 0.7005026647387591}, {"type": "position", "time": 27461, "x": 1.200004500016875, "y": 0.7005026647387591}, {"type": "position", "time": 27511, "x": 1.200004500016875, "y": 0.7005026647387591}, {"type": "position", "time": 27561, "x": 1.2025045093919102, "y": 0.6938470574728327}, {"type": "position", "time": 27611, "x": 1.203754514079428, "y": 0.6805358429409798}, {"type": "position", "time": 27661, "x": 1.2137545515795685, "y": 0.6505856102443107}, {"type": "position", "time": 27711, "x": 1.2175045656421213, "y": 0.6339465920794947}, {"type": "position", "time": 27761, "x": 1.2262545984547442, "y": 0.610651966648752}, {"type": "position", "time": 27811, "x": 1.230004612517297, "y": 0.6006685557498623}, {"type": "position", "time": 27861, "x": 1.230004612517297, "y": 0.5990046539333808}, {"type": "position", "time": 27912, "x": 1.2325046218923321, "y": 0.5956768503004175}, {"type": "slider", "time": 27951, "value": 0.52}, {"type": "position", "time": 27962, "x": 1.2325046218923321, "y": 0.5940129484839359}, {"type": "position", "time": 28011, "x": 1.2325046218923321, "y": 0.5940129484839359}, {"type": "click", "time": 28031, "x": 1.2325046218923321, "y": 0.5940129484839359}, {"type": "position", "time": 28061, "x": 1.2325046218923321, "y": 0.5940129484839359}, {"type": "position", "time": 28111, "x": 1.236254635954885, "y": 0.5856934394015278}, {"type": "position", "time": 28162, "x": 1.2375046406424024, "y": 0.5790378321356013}, {"type": "position", "time": 28211, "x": 1.2412546547049552, "y": 0.5707183230531934}, {"type": "position", "time": 28261, "x": 1.245004668767508, "y": 0.5657266176037484}, {"type": "position", "time": 28311, "x": 1.245004668767508, "y": 0.5657266176037484}, {"type": "position", "time": 28361, "x": 1.245004668767508, "y": 0.5690544212367117}, {"type": "position", "time": 28411, "x": 1.245004668767508, "y": 0.580701733952083}, {"type": "position", "time": 28461, "x": 1.2412546547049552, "y": 0.5990046539333808}, {"type": "position", "time": 28511, "x": 1.2400046500174375, "y": 0.6139797702817152}, {"type": "position", "time": 28561, "x": 1.2400046500174375, "y": 0.6256270829970866}, {"type": "position", "time": 28611, "x": 1.2375046406424024, "y": 0.6439300029783843}, {"type": "position", "time": 28661, "x": 1.2375046406424024, "y": 0.6439300029783843}, {"type": "position", "time": 28712, "x": 1.2375046406424024, "y": 0.6489217084278291}, {"type": "position", "time": 28761, "x": 1.2375046406424024, "y": 0.653913413877274}, {"type": "position", "time": 28811, "x": 1.2375046406424024, "y": 0.6605690211432004}, {"type": "position", "time": 28861, "x": 1.2375046406424024, "y": 0.6638968247761636}, {"type": "position", "time": 28912, "x": 1.2375046406424024, "y": 0.6638968247761636}, {"type": "position", "time": 28961, "x": 1.2375046406424024, "y": 0.6655607265926453}, {"type": "position", "time": 29011, "x": 1.2375046406424024, "y": 0.6688885302256085}, {"type": "position", "time": 29061, "x": 1.2375046406424024, "y": 0.6688885302256085}, {"type": "click", "time": 29091, "x": 1.2375046406424024, "y": 0.6688885302256085}, {"type": "position", "time": 29111, "x": 1.2375046406424024, "y": 0.6688885302256085}, {"type": "position", "time": 29161, "x": 1.2375046406424024, "y": 0.6705524320420901}, {"type": "position", "time": 29211, "x": 1.2375046406424024, "y": 0.6705524320420901}, {"type": "position", "time": 29261, "x": 1.2375046406424024, "y": 0.6738802356750533}, {"type": "position", "time": 29312, "x": 1.2375046406424024, "y": 0.6738802356750533}, {"type": "position", "time": 29361, "x": 1.2375046406424024, "y": 0.6738802356750533}, {"type": "position", "time": 29411, "x": 1.2375046406424024, "y": 0.6738802356750533}, {"type": "position", "time": 29462, "x": 1.2375046406424024, "y": 0.6738802356750533}, {"type": "position", "time": 29511, "x": 1.2287546078297795, "y": 0.6655607265926453}, {"type": "position", "time": 29561, "x": 1.2212545797046739, "y": 0.6455939047948659}, {"type": "position", "time": 29611, "x": 1.2137545515795685, "y": 0.6256270829970866}, {"type": "position", "time": 29661, "x": 1.2075045281419805, "y": 0.6156436720981969}, {"type": "position", "time": 29711, "x": 1.2075045281419805, "y": 0.6056602611993072}, {"type": "position", "time": 29761, "x": 1.2075045281419805, "y": 0.5956768503004175}, {"type": "slider", "time": 29810, "value": 0.48}, {"type": "position", "time": 29812, "x": 1.2075045281419805, "y": 0.5940129484839359}, {"type": "position", "time": 29861, "x": 1.2075045281419805, "y": 0.5940129484839359}, {"type": "slider", "time": 29908, "value": 0.47}, {"type": "position", "time": 29912, "x": 1.203754514079428, "y": 0.6006685557498623}, {"type": "click", "time": 29938, "x": 1.200004500016875, "y": 0.6089880648322704}, {"type": "position", "time": 29961, "x": 1.1962544859543225, "y": 0.6089880648322704}, {"type": "position", "time": 30011, "x": 1.1962544859543225, "y": 0.6089880648322704}, {"type": "position", "time": 30061, "x": 1.1962544859543225, "y": 0.6089880648322704}, {"type": "position", "time": 30111, "x": 1.1962544859543225, "y": 0.6089880648322704}, {"type": "position", "time": 30161, "x": 1.1962544859543225, "y": 0.6089880648322704}, {"type": "position", "time": 30211, "x": 1.1962544859543225, "y": 0.6089880648322704}, {"type": "position", "time": 30261, "x": 1.1987544953293576, "y": 0.6089880648322704}, {"type": "position", "time": 30311, "x": 1.2025045093919102, "y": 0.6139797702817152}, {"type": "position", "time": 30361, "x": 1.2187545703296387, "y": 0.6389382975289395}, {"type": "position", "time": 30411, "x": 1.230004612517297, "y": 0.6638968247761636}, {"type": "position", "time": 30461, "x": 1.2325046218923321, "y": 0.6738802356750533}, {"type": "position", "time": 30511, "x": 1.2325046218923321, "y": 0.6788719411244982}, {"type": "position", "time": 30561, "x": 1.2325046218923321, "y": 0.6855275483904246}, {"type": "position", "time": 30612, "x": 1.2325046218923321, "y": 0.6888553520233879}, {"type": "position", "time": 30661, "x": 1.2325046218923321, "y": 0.6888553520233879}, {"type": "position", "time": 30711, "x": 1.2325046218923321, "y": 0.6905192538398695}, {"type": "click", "time": 30732, "x": 1.2325046218923321, "y": 0.6905192538398695}, {"type": "position", "time": 30761, "x": 1.2337546265798498, "y": 0.6938470574728327}, {"type": "position", "time": 30811, "x": 1.2337546265798498, "y": 0.6938470574728327}, {"type": "position", "time": 30861, "x": 1.2337546265798498, "y": 0.6888553520233879}, {"type": "position", "time": 30911, "x": 1.2375046406424024, "y": 0.683863646573943}, {"type": "position", "time": 30961, "x": 1.2437546640799904, "y": 0.675544137491535}, {"type": "position", "time": 31011, "x": 1.2850048187680705, "y": 0.6439300029783843}, {"type": "position", "time": 31061, "x": 1.2912548422056584, "y": 0.6406021993454211}, {"type": "position", "time": 31111, "x": 1.2912548422056584, "y": 0.6389382975289395}, {"type": "position", "time": 31161, "x": 1.2912548422056584, "y": 0.6389382975289395}, {"type": "position", "time": 31211, "x": 1.2912548422056584, "y": 0.6256270829970866}, {"type": "position", "time": 31261, "x": 1.2837548140805528, "y": 0.6006685557498623}, {"type": "position", "time": 31311, "x": 1.2762547859554474, "y": 0.5840295375850463}, {"type": "position", "time": 31361, "x": 1.262504734392754, "y": 0.5490875994389324}, {"type": "position", "time": 31411, "x": 1.2412546547049552, "y": 0.5158095631093}, {"type": "position", "time": 31461, "x": 1.2375046406424024, "y": 0.5108178576598552}, {"type": "position", "time": 31511, "x": 1.2375046406424024, "y": 0.5108178576598552}, {"type": "position", "time": 31561, "x": 1.2375046406424024, "y": 0.5091539558433736}, {"type": "position", "time": 31611, "x": 1.2375046406424024, "y": 0.5091539558433736}, {"type": "position", "time": 31661, "x": 1.2375046406424024, "y": 0.5091539558433736}, {"type": "position", "time": 31711, "x": 1.2375046406424024, "y": 0.5091539558433736}, {"type": "position", "time": 31762, "x": 1.2375046406424024, "y": 0.5091539558433736}, {"type": "position", "time": 31811, "x": 1.2375046406424024, "y": 0.5091539558433736}, {"type": "position", "time": 31862, "x": 1.2375046406424024, "y": 0.5091539558433736}, {"type": "position", "time": 31911, "x": 1.2375046406424024, "y": 0.5091539558433736}, {"type": "position", "time": 31961, "x": 1.2375046406424024, "y": 0.5091539558433736}, {"type": "position", "time": 32011, "x": 1.2375046406424024, "y": 0.5091539558433736}, {"type": "position", "time": 32062, "x": 1.2375046406424024, "y": 0.5091539558433736}, {"type": "position", "time": 32111, "x": 1.2375046406424024, "y": 0.5091539558433736}, {"type": "position", "time": 32161, "x": 1.2375046406424024, "y": 0.5091539558433736}, {"type": "position", "time": 32211, "x": 1.2375046406424024, "y": 0.5091539558433736}, {"type": "position", "time": 32261, "x": 1.236254635954885, "y": 0.5108178576598552}, {"type": "position", "time": 32311, "x": 1.236254635954885, "y": 0.5108178576598552}, {"type": "position", "time": 32361, "x": 1.236254635954885, "y": 0.5108178576598552}, {"type": "position", "time": 32412, "x": 1.236254635954885, "y": 0.5108178576598552}, {"type": "position", "time": 32461, "x": 1.236254635954885, "y": 0.5108178576598552}, {"type": "position", "time": 32511, "x": 1.236254635954885, "y": 0.5108178576598552}, {"type": "position", "time": 32562, "x": 1.236254635954885, "y": 0.5108178576598552}, {"type": "position", "time": 32611, "x": 1.236254635954885, "y": 0.5108178576598552}, {"type": "position", "time": 32661, "x": 1.236254635954885, "y": 0.5108178576598552}, {"type": "position", "time": 32711, "x": 1.236254635954885, "y": 0.5108178576598552}, {"type": "position", "time": 32761, "x": 1.236254635954885, "y": 0.5108178576598552}, {"type": "position", "time": 32811, "x": 1.236254635954885, "y": 0.5108178576598552}, {"type": "position", "time": 32861, "x": 1.236254635954885, "y": 0.5108178576598552}, {"type": "position", "time": 32911, "x": 1.236254635954885, "y": 0.5158095631093}, {"type": "position", "time": 32961, "x": 1.2400046500174375, "y": 0.5257929740081898}, {"type": "position", "time": 33011, "x": 1.2412546547049552, "y": 0.5257929740081898}, {"type": "position", "time": 33061, "x": 1.2412546547049552, "y": 0.5257929740081898}, {"type": "position", "time": 33112, "x": 1.2412546547049552, "y": 0.5257929740081898}, {"type": "position", "time": 33161, "x": 1.2412546547049552, "y": 0.5257929740081898}, {"type": "position", "time": 33211, "x": 1.2412546547049552, "y": 0.5257929740081898}, {"type": "position", "time": 33261, "x": 1.2437546640799904, "y": 0.5257929740081898}, {"type": "position", "time": 33311, "x": 1.2437546640799904, "y": 0.5257929740081898}, {"type": "position", "time": 33361, "x": 1.2437546640799904, "y": 0.5257929740081898}, {"type": "position", "time": 33411, "x": 1.2437546640799904, "y": 0.5257929740081898}, {"type": "position", "time": 33461, "x": 1.2437546640799904, "y": 0.5257929740081898}, {"type": "position", "time": 33511, "x": 1.2437546640799904, "y": 0.5257929740081898}, {"type": "position", "time": 33561, "x": 1.2437546640799904, "y": 0.5257929740081898}, {"type": "position", "time": 33611, "x": 1.2437546640799904, "y": 0.5257929740081898}, {"type": "position", "time": 33661, "x": 1.2437546640799904, "y": 0.5257929740081898}, {"type": "position", "time": 33712, "x": 1.2437546640799904, "y": 0.5257929740081898}, {"type": "position", "time": 33761, "x": 1.2437546640799904, "y": 0.5257929740081898}, {"type": "position", "time": 33811, "x": 1.2437546640799904, "y": 0.5257929740081898}, {"type": "position", "time": 33862, "x": 1.2437546640799904, "y": 0.5257929740081898}, {"type": "position", "time": 33911, "x": 1.2437546640799904, "y": 0.5257929740081898}, {"type": "position", "time": 33961, "x": 1.2437546640799904, "y": 0.5257929740081898}, {"type": "position", "time": 34011, "x": 1.2437546640799904, "y": 0.5257929740081898}, {"type": "position", "time": 34061, "x": 1.2437546640799904, "y": 0.5257929740081898}, {"type": "position", "time": 34111, "x": 1.2437546640799904, "y": 0.5257929740081898}, {"type": "position", "time": 34161, "x": 1.2437546640799904, "y": 0.5257929740081898}, {"type": "position", "time": 34211, "x": 1.2437546640799904, "y": 0.5257929740081898}, {"type": "position", "time": 34261, "x": 1.2437546640799904, "y": 0.5257929740081898}, {"type": "slider", "time": 34312, "value": 0.54}, {"type": "position", "time": 34314, "x": 1.2437546640799904, "y": 0.5257929740081898}, {"type": "position", "time": 34361, "x": 1.2437546640799904, "y": 0.5257929740081898}, {"type": "position", "time": 34412, "x": 1.2437546640799904, "y": 0.5257929740081898}, {"type": "position", "time": 34461, "x": 1.2437546640799904, "y": 0.5257929740081898}, {"type": "slider", "time": 34512, "value": 0.55}, {"type": "position", "time": 34514, "x": 1.2487546828300606, "y": 0.5257929740081898}, {"type": "slider", "time": 34520, "value": 0.56}, {"type": "slider", "time": 34534, "value": 0.57}, {"type": "slider", "time": 34549, "value": 0.59}, {"type": "position", "time": 34562, "x": 1.2762547859554474, "y": 0.5257929740081898}, {"type": "slider", "time": 34566, "value": 0.6}, {"type": "position", "time": 34611, "x": 1.2800048000180002, "y": 0.5257929740081898}, {"type": "position", "time": 34661, "x": 1.2850048187680705, "y": 0.5257929740081898}, {"type": "slider", "time": 34664, "value": 0.61}, {"type": "slider", "time": 34683, "value": 0.62}, {"type": "position", "time": 34711, "x": 1.295004856268211, "y": 0.5257929740081898}, {"type": "slider", "time": 34736, "value": 0.63}, {"type": "position", "time": 34761, "x": 1.3025048843933165, "y": 0.5257929740081898}, {"type": "slider", "time": 34764, "value": 0.65}, {"type": "slider", "time": 34784, "value": 0.67}, {"type": "slider", "time": 34799, "value": 0.68}, {"type": "position", "time": 34812, "x": 1.3300049875187032, "y": 0.529120777641153}, {"type": "position", "time": 34861, "x": 1.3300049875187032, "y": 0.529120777641153}, {"type": "click", "time": 34887, "x": 1.3300049875187032, "y": 0.529120777641153}, {"type": "position", "time": 34911, "x": 1.3300049875187032, "y": 0.529120777641153}, {"type": "position", "time": 34961, "x": 1.3325049968937384, "y": 0.529120777641153}, {"type": "position", "time": 35011, "x": 1.3362550109562912, "y": 0.529120777641153}, {"type": "position", "time": 35061, "x": 1.3412550297063615, "y": 0.5241290721917081}, {"type": "position", "time": 35111, "x": 1.3550050812690548, "y": 0.5208012685587449}, {"type": "position", "time": 35161, "x": 1.3625051093941603, "y": 0.5208012685587449}, {"type": "position", "time": 35211, "x": 1.3675051281442305, "y": 0.5208012685587449}, {"type": "slider", "time": 35225, "value": 0.73}, {"type": "position", "time": 35261, "x": 1.3675051281442305, "y": 0.5191373667422633}, {"type": "position", "time": 35311, "x": 1.3675051281442305, "y": 0.5191373667422633}, {"type": "click", "time": 35335, "x": 1.3675051281442305, "y": 0.5191373667422633}, {"type": "position", "time": 35361, "x": 1.3675051281442305, "y": 0.5191373667422633}, {"type": "position", "time": 35411, "x": 1.3675051281442305, "y": 0.5191373667422633}, {"type": "position", "time": 35461, "x": 1.3675051281442305, "y": 0.5191373667422633}, {"type": "position", "time": 35512, "x": 1.3675051281442305, "y": 0.5191373667422633}, {"type": "position", "time": 35561, "x": 1.366255123456713, "y": 0.5257929740081898}, {"type": "position", "time": 35611, "x": 1.3587550953316077, "y": 0.5341124830905978}, {"type": "position", "time": 35661, "x": 1.3562550859565725, "y": 0.5341124830905978}, {"type": "position", "time": 35711, "x": 1.3475050531439494, "y": 0.5341124830905978}, {"type": "position", "time": 35761, "x": 1.3175049406435275, "y": 0.5507515012554139}, {"type": "position", "time": 35811, "x": 1.2412546547049552, "y": 0.5906851448509727}, {"type": "position", "time": 35861, "x": 1.2137545515795685, "y": 0.6006685557498623}, {"type": "position", "time": 35911, "x": 1.2137545515795685, "y": 0.6006685557498623}, {"type": "position", "time": 35961, "x": 1.2137545515795685, "y": 0.6006685557498623}, {"type": "position", "time": 36012, "x": 1.2137545515795685, "y": 0.6006685557498623}, {"type": "position", "time": 36062, "x": 1.2137545515795685, "y": 0.6006685557498623}, {"type": "position", "time": 36111, "x": 1.2137545515795685, "y": 0.6006685557498623}, {"type": "position", "time": 36161, "x": 1.2137545515795685, "y": 0.6006685557498623}, {"type": "position", "time": 36211, "x": 1.2137545515795685, "y": 0.6006685557498623}, {"type": "position", "time": 36261, "x": 1.2137545515795685, "y": 0.6039963593828256}, {"type": "position", "time": 36312, "x": 1.2137545515795685, "y": 0.6089880648322704}, {"type": "position", "time": 36361, "x": 1.2137545515795685, "y": 0.6089880648322704}, {"type": "click", "time": 36397, "x": 1.2137545515795685, "y": 0.6089880648322704}, {"type": "position", "time": 36411, "x": 1.2137545515795685, "y": 0.6089880648322704}, {"type": "position", "time": 36461, "x": 1.2137545515795685, "y": 0.6089880648322704}, {"type": "position", "time": 36511, "x": 1.2137545515795685, "y": 0.6089880648322704}, {"type": "position", "time": 36561, "x": 1.2137545515795685, "y": 0.6089880648322704}, {"type": "position", "time": 36611, "x": 1.2137545515795685, "y": 0.6089880648322704}, {"type": "position", "time": 36661, "x": 1.2137545515795685, "y": 0.6156436720981969}, {"type": "position", "time": 36711, "x": 1.2075045281419805, "y": 0.6256270829970866}, {"type": "position", "time": 36761, "x": 1.1425042843910664, "y": 0.6738802356750533}, {"type": "position", "time": 36811, "x": 1.1137541765781622, "y": 0.7204694865365385}, {"type": "position", "time": 36861, "x": 1.1137541765781622, "y": 0.7204694865365385}, {"type": "position", "time": 36911, "x": 1.1137541765781622, "y": 0.7204694865365385}, {"type": "position", "time": 36961, "x": 1.1137541765781622, "y": 0.7204694865365385}, {"type": "position", "time": 37011, "x": 1.1212542047032676, "y": 0.7005026647387591}, {"type": "position", "time": 37061, "x": 1.158754345328795, "y": 0.6455939047948659}, {"type": "position", "time": 37111, "x": 1.16125435470383, "y": 0.5840295375850463}, {"type": "position", "time": 37161, "x": 1.1762544109540412, "y": 0.5341124830905978}, {"type": "position", "time": 37211, "x": 1.1775044156415586, "y": 0.5108178576598552}, {"type": "position", "time": 37261, "x": 1.1775044156415586, "y": 0.5091539558433736}, {"type": "position", "time": 37311, "x": 1.1775044156415586, "y": 0.5091539558433736}, {"type": "position", "time": 37361, "x": 1.1775044156415586, "y": 0.5091539558433736}, {"type": "position", "time": 37411, "x": 1.1775044156415586, "y": 0.5058261522104104}, {"type": "position", "time": 37461, "x": 1.1775044156415586, "y": 0.5058261522104104}, {"type": "position", "time": 37511, "x": 1.1775044156415586, "y": 0.5058261522104104}, {"type": "position", "time": 37562, "x": 1.1775044156415586, "y": 0.5058261522104104}, {"type": "position", "time": 37611, "x": 1.1775044156415586, "y": 0.5058261522104104}, {"type": "position", "time": 37661, "x": 1.1775044156415586, "y": 0.5058261522104104}, {"type": "position", "time": 37712, "x": 1.1775044156415586, "y": 0.5058261522104104}, {"type": "position", "time": 37761, "x": 1.1775044156415586, "y": 0.5058261522104104}, {"type": "position", "time": 37811, "x": 1.1775044156415586, "y": 0.5058261522104104}, {"type": "click", "time": 37818, "x": 1.1775044156415586, "y": 0.5058261522104104}, {"type": "position", "time": 37861, "x": 1.1775044156415586, "y": 0.5058261522104104}, {"type": "position", "time": 37911, "x": 1.1775044156415586, "y": 0.5058261522104104}, {"type": "position", "time": 37961, "x": 1.1775044156415586, "y": 0.5058261522104104}, {"type": "position", "time": 38011, "x": 1.1775044156415586, "y": 0.5058261522104104}, {"type": "position", "time": 38061, "x": 1.1775044156415586, "y": 0.5058261522104104}, {"type": "position", "time": 38111, "x": 1.1775044156415586, "y": 0.5058261522104104}, {"type": "position", "time": 38162, "x": 1.1775044156415586, "y": 0.5058261522104104}, {"type": "position", "time": 38211, "x": 1.1775044156415586, "y": 0.5058261522104104}, {"type": "position", "time": 38261, "x": 1.1775044156415586, "y": 0.5058261522104104}, {"type": "position", "time": 38311, "x": 1.1775044156415586, "y": 0.5058261522104104}, {"type": "position", "time": 38361, "x": 1.1775044156415586, "y": 0.5058261522104104}, {"type": "position", "time": 38411, "x": 1.1775044156415586, "y": 0.5058261522104104}, {"type": "position", "time": 38461, "x": 1.1775044156415586, "y": 0.5058261522104104}, {"type": "position", "time": 38511, "x": 1.1775044156415586, "y": 0.5058261522104104}, {"type": "position", "time": 38561, "x": 1.1775044156415586, "y": 0.5058261522104104}, {"type": "position", "time": 38612, "x": 1.1775044156415586, "y": 0.5058261522104104}, {"type": "position", "time": 38661, "x": 1.1775044156415586, "y": 0.5058261522104104}, {"type": "position", "time": 38711, "x": 1.1775044156415586, "y": 0.5058261522104104}, {"type": "position", "time": 38761, "x": 1.1775044156415586, "y": 0.5058261522104104}, {"type": "position", "time": 38812, "x": 1.1775044156415586, "y": 0.5058261522104104}, {"type": "position", "time": 38861, "x": 1.1775044156415586, "y": 0.5058261522104104}, {"type": "position", "time": 38911, "x": 1.1775044156415586, "y": 0.5058261522104104}, {"type": "position", "time": 38961, "x": 1.1775044156415586, "y": 0.5058261522104104}, {"type": "position", "time": 39011, "x": 1.1775044156415586, "y": 0.49917054494448393}, {"type": "position", "time": 39061, "x": 1.1775044156415586, "y": 0.49917054494448393}, {"type": "position", "time": 39111, "x": 1.1775044156415586, "y": 0.49917054494448393}, {"type": "position", "time": 39161, "x": 1.1775044156415586, "y": 0.49917054494448393}, {"type": "position", "time": 39211, "x": 1.1775044156415586, "y": 0.49917054494448393}, {"type": "position", "time": 39261, "x": 1.1775044156415586, "y": 0.49917054494448393}, {"type": "position", "time": 39312, "x": 1.1775044156415586, "y": 0.49917054494448393}, {"type": "position", "time": 39361, "x": 1.1775044156415586, "y": 0.49917054494448393}, {"type": "position", "time": 39411, "x": 1.1775044156415586, "y": 0.49917054494448393}, {"type": "position", "time": 39461, "x": 1.1775044156415586, "y": 0.49917054494448393}, {"type": "position", "time": 39511, "x": 1.1775044156415586, "y": 0.49917054494448393}, {"type": "position", "time": 39561, "x": 1.1775044156415586, "y": 0.49917054494448393}, {"type": "position", "time": 39611, "x": 1.1775044156415586, "y": 0.49917054494448393}, {"type": "position", "time": 39662, "x": 1.1775044156415586, "y": 0.49917054494448393}, {"type": "position", "time": 39711, "x": 1.1775044156415586, "y": 0.49917054494448393}, {"type": "position", "time": 39761, "x": 1.1775044156415586, "y": 0.49917054494448393}, {"type": "position", "time": 39811, "x": 1.1775044156415586, "y": 0.49917054494448393}, {"type": "position", "time": 39861, "x": 1.1775044156415586, "y": 0.49917054494448393}, {"type": "position", "time": 39912, "x": 1.1775044156415586, "y": 0.49917054494448393}, {"type": "position", "time": 39961, "x": 1.1775044156415586, "y": 0.49917054494448393}, {"type": "position", "time": 40011, "x": 1.1775044156415586, "y": 0.49917054494448393}, {"type": "position", "time": 40061, "x": 1.1775044156415586, "y": 0.49917054494448393}, {"type": "keyup", "time": 40110, "key": "H", "keyCode": 72}, {"type": "position", "time": 40112, "x": 1.1775044156415586, "y": 0.49917054494448393}, {"type": "keyup", "time": 40114, "key": "\u0010", "keyCode": 16}, {"type": "position", "time": 40161, "x": 1.1775044156415586, "y": 0.49917054494448393}, {"type": "position", "time": 40212, "x": 1.1775044156415586, "y": 0.49917054494448393}, {"type": "position", "time": 40261, "x": 1.1775044156415586, "y": 0.49917054494448393}, {"type": "keyup", "time": 40293, "key": "E", "keyCode": 69}, {"type": "position", "time": 40311, "x": 1.1775044156415586, "y": 0.49917054494448393}, {"type": "position", "time": 40361, "x": 1.1775044156415586, "y": 0.49917054494448393}, {"type": "keyup", "time": 40392, "key": " ", "keyCode": 32}, {"type": "position", "time": 40411, "x": 1.1775044156415586, "y": 0.49917054494448393}, {"type": "position", "time": 40461, "x": 1.1775044156415586, "y": 0.49917054494448393}, {"type": "keyup", "time": 40501, "key": "W", "keyCode": 87}, {"type": "position", "time": 40511, "x": 1.1775044156415586, "y": 0.49917054494448393}, {"type": "position", "time": 40561, "x": 1.1775044156415586, "y": 0.49917054494448393}, {"type": "position", "time": 40611, "x": 1.1775044156415586, "y": 0.49917054494448393}, {"type": "position", "time": 40661, "x": 1.1775044156415586, "y": 0.49917054494448393}, {"type": "keyup", "time": 40671, "key": "A", "keyCode": 65}, {"type": "position", "time": 40711, "x": 1.1775044156415586, "y": 0.49917054494448393}, {"type": "keyup", "time": 40715, "key": "S", "keyCode": 83}, {"type": "position", "time": 40761, "x": 1.1775044156415586, "y": 0.49917054494448393}, {"type": "position", "time": 40812, "x": 1.1775044156415586, "y": 0.49917054494448393}, {"type": "keyup", "time": 40830, "key": " ", "keyCode": 32}, {"type": "position", "time": 40861, "x": 1.1775044156415586, "y": 0.49917054494448393}, {"type": "position", "time": 40912, "x": 1.1775044156415586, "y": 0.49917054494448393}, {"type": "position", "time": 40961, "x": 1.1775044156415586, "y": 0.49917054494448393}, {"type": "keyup", "time": 40965, "key": "F", "keyCode": 70}, {"type": "position", "time": 41011, "x": 1.1775044156415586, "y": 0.49917054494448393}, {"type": "keyup", "time": 41015, "key": "R", "keyCode": 82}, {"type": "position", "time": 41061, "x": 1.1775044156415586, "y": 0.49917054494448393}, {"type": "keyup", "time": 41089, "key": "O", "keyCode": 79}, {"type": "position", "time": 41111, "x": 1.1775044156415586, "y": 0.49917054494448393}, {"type": "position", "time": 41161, "x": 1.1775044156415586, "y": 0.49917054494448393}, {"type": "keyup", "time": 41164, "key": "M", "keyCode": 77}, {"type": "position", "time": 41211, "x": 1.1775044156415586, "y": 0.49917054494448393}, {"type": "keyup", "time": 41229, "key": " ", "keyCode": 32}, {"type": "position", "time": 41262, "x": 1.1775044156415586, "y": 0.49917054494448393}, {"type": "position", "time": 41311, "x": 1.1775044156415586, "y": 0.49917054494448393}, {"type": "position", "time": 41361, "x": 1.1775044156415586, "y": 0.49917054494448393}, {"type": "keyup", "time": 41366, "key": "J", "keyCode": 74}, {"type": "position", "time": 41411, "x": 1.1775044156415586, "y": 0.49917054494448393}, {"type": "keyup", "time": 41451, "key": "A", "keyCode": 65}, {"type": "position", "time": 41462, "x": 1.1775044156415586, "y": 0.49917054494448393}, {"type": "position", "time": 41511, "x": 1.1775044156415586, "y": 0.49917054494448393}, {"type": "keyup", "time": 41550, "key": "P", "keyCode": 80}, {"type": "position", "time": 41561, "x": 1.1775044156415586, "y": 0.49917054494448393}, {"type": "position", "time": 41611, "x": 1.1775044156415586, "y": 0.49917054494448393}, {"type": "keyup", "time": 41630, "key": "A", "keyCode": 65}, {"type": "position", "time": 41661, "x": 1.1775044156415586, "y": 0.49917054494448393}, {"type": "position", "time": 41711, "x": 1.1775044156415586, "y": 0.49917054494448393}, {"type": "position", "time": 41761, "x": 1.1775044156415586, "y": 0.49917054494448393}, {"type": "position", "time": 41811, "x": 1.1775044156415586, "y": 0.49917054494448393}, {"type": "keyup", "time": 41849, "key": "N", "keyCode": 78}, {"type": "position", "time": 41861, "x": 1.1775044156415586, "y": 0.49917054494448393}, {"type": "position", "time": 41911, "x": 1.1775044156415586, "y": 0.49917054494448393}, {"type": "position", "time": 41961, "x": 1.1775044156415586, "y": 0.49917054494448393}, {"type": "position", "time": 42011, "x": 1.1775044156415586, "y": 0.49917054494448393}, {"type": "position", "time": 42061, "x": 1.1775044156415586, "y": 0.49917054494448393}, {"type": "position", "time": 42111, "x": 1.1775044156415586, "y": 0.49917054494448393}, {"type": "position", "time": 42161, "x": 1.1775044156415586, "y": 0.49917054494448393}, {"type": "position", "time": 42211, "x": 1.1775044156415586, "y": 0.49917054494448393}, {"type": "position", "time": 42261, "x": 1.1775044156415586, "y": 0.49917054494448393}, {"type": "keyup", "time": 42283, "key": "\t", "keyCode": 9}, {"type": "position", "time": 42311, "x": 1.1775044156415586, "y": 0.49917054494448393}, {"type": "position", "time": 42361, "x": 1.1775044156415586, "y": 0.49917054494448393}, {"type": "position", "time": 42411, "x": 1.1775044156415586, "y": 0.49917054494448393}, {"type": "position", "time": 42461, "x": 1.1775044156415586, "y": 0.49917054494448393}, {"type": "position", "time": 42511, "x": 1.1775044156415586, "y": 0.49917054494448393}, {"type": "position", "time": 42561, "x": 1.1775044156415586, "y": 0.49917054494448393}, {"type": "position", "time": 42611, "x": 1.1775044156415586, "y": 0.49917054494448393}, {"type": "position", "time": 42661, "x": 1.1775044156415586, "y": 0.49917054494448393}, {"type": "position", "time": 42712, "x": 1.1775044156415586, "y": 0.49917054494448393}, {"type": "position", "time": 42761, "x": 1.1775044156415586, "y": 0.49917054494448393}, {"type": "position", "time": 42811, "x": 1.1775044156415586, "y": 0.49917054494448393}, {"type": "position", "time": 42862, "x": 1.1775044156415586, "y": 0.49917054494448393}, {"type": "position", "time": 42911, "x": 1.1775044156415586, "y": 0.49917054494448393}, {"type": "position", "time": 42962, "x": 1.1775044156415586, "y": 0.49917054494448393}, {"type": "position", "time": 43011, "x": 1.1775044156415586, "y": 0.49917054494448393}, {"type": "position", "time": 43061, "x": 1.1775044156415586, "y": 0.49917054494448393}, {"type": "position", "time": 43112, "x": 1.1775044156415586, "y": 0.49917054494448393}, {"type": "position", "time": 43161, "x": 1.1775044156415586, "y": 0.49917054494448393}, {"type": "position", "time": 43211, "x": 1.1775044156415586, "y": 0.49917054494448393}, {"type": "position", "time": 43261, "x": 1.1775044156415586, "y": 0.49917054494448393}, {"type": "position", "time": 43311, "x": 1.1775044156415586, "y": 0.49917054494448393}, {"type": "position", "time": 43361, "x": 1.1775044156415586, "y": 0.49917054494448393}, {"type": "position", "time": 43411, "x": 1.1775044156415586, "y": 0.49917054494448393}, {"type": "position", "time": 43461, "x": 1.1775044156415586, "y": 0.49917054494448393}, {"type": "position", "time": 43511, "x": 1.1775044156415586, "y": 0.49917054494448393}, {"type": "position", "time": 43561, "x": 1.1775044156415586, "y": 0.49917054494448393}, {"type": "position", "time": 43611, "x": 1.1775044156415586, "y": 0.49917054494448393}, {"type": "position", "time": 43661, "x": 1.1775044156415586, "y": 0.49917054494448393}, {"type": "position", "time": 43711, "x": 1.1775044156415586, "y": 0.49917054494448393}, {"type": "position", "time": 43761, "x": 1.1775044156415586, "y": 0.49917054494448393}, {"type": "position", "time": 43811, "x": 1.1775044156415586, "y": 0.49917054494448393}, {"type": "position", "time": 43861, "x": 1.1775044156415586, "y": 0.49917054494448393}, {"type": "position", "time": 43912, "x": 1.1775044156415586, "y": 0.49917054494448393}, {"type": "position", "time": 43961, "x": 1.1775044156415586, "y": 0.49917054494448393}, {"type": "position", "time": 44011, "x": 1.1775044156415586, "y": 0.49917054494448393}, {"type": "position", "time": 44062, "x": 1.1775044156415586, "y": 0.49917054494448393}, {"type": "position", "time": 44111, "x": 1.1775044156415586, "y": 0.49917054494448393}, {"type": "position", "time": 44161, "x": 1.1775044156415586, "y": 0.49917054494448393}, {"type": "position", "time": 44211, "x": 1.1775044156415586, "y": 0.49917054494448393}, {"type": "position", "time": 44262, "x": 1.1775044156415586, "y": 0.49917054494448393}, {"type": "position", "time": 44311, "x": 1.1775044156415586, "y": 0.49917054494448393}, {"type": "position", "time": 44361, "x": 1.1775044156415586, "y": 0.49917054494448393}, {"type": "position", "time": 44411, "x": 1.1775044156415586, "y": 0.49917054494448393}, {"type": "position", "time": 44461, "x": 1.1775044156415586, "y": 0.49917054494448393}, {"type": "position", "time": 44511, "x": 1.1775044156415586, "y": 0.49917054494448393}, {"type": "position", "time": 44562, "x": 1.1775044156415586, "y": 0.49917054494448393}, {"type": "position", "time": 44611, "x": 1.1775044156415586, "y": 0.49917054494448393}, {"type": "position", "time": 44661, "x": 1.1775044156415586, "y": 0.49917054494448393}, {"type": "position", "time": 44711, "x": 1.1775044156415586, "y": 0.49917054494448393}, {"type": "position", "time": 44761, "x": 1.1775044156415586, "y": 0.49917054494448393}, {"type": "position", "time": 44811, "x": 1.1775044156415586, "y": 0.49917054494448393}, {"type": "position", "time": 44861, "x": 1.1775044156415586, "y": 0.49917054494448393}, {"type": "position", "time": 44911, "x": 1.1775044156415586, "y": 0.49917054494448393}, {"type": "keyup", "time": 44930, "key": " ", "keyCode": 32}, {"type": "click", "time": 44934, "x": 1.1775044156415586, "y": 0.49917054494448393}, {"type": "position", "time": 44961, "x": 1.1775044156415586, "y": 0.49917054494448393}, {"type": "position", "time": 45011, "x": 1.1775044156415586, "y": 0.49917054494448393}, {"type": "position", "time": 45062, "x": 1.1775044156415586, "y": 0.49917054494448393}, {"type": "position", "time": 45111, "x": 1.1775044156415586, "y": 0.49917054494448393}, {"type": "position", "time": 45161, "x": 1.1775044156415586, "y": 0.49917054494448393}, {"type": "position", "time": 45211, "x": 1.1775044156415586, "y":