{"ApprovalTime": "2016-03-10T20:50:27Z", "SubmitTime": "2016-03-10T20:48:17Z", "AssignmentId": "3EQHHY4HQSS6XFWXUVFUJ8PFVX55GF", "HITId": "38G0E1M85M53D7EEUOHN21OJ7HQVU5", "answers": {"data": {"trials": [{"story": "cooking", "time": 16127, "name": "Andrew", "rt": 10975, "blocknum": 0, "qtype": "probability", "response": 0.78, "trialnum": 1, "gender": "male", "qnum": 0}, {"story": "cooking", "time": 16127, "name": "Andrew", "rt": 10975, "blocknum": 0, "qtype": "ungrammatical", "trialnum": 1, "gender": "male", "qnum": 0}, {"story": "cooking", "time": 27503, "name": "Greg", "rt": 11364, "blocknum": 0, "qtype": "explanation", "response": "he was too focused on socializing", "trialnum": 2, "gender": "male", "qnum": 1}, {"story": "cooking", "time": 31098, "name": "Greg", "rt": 3536, "blocknum": 0, "qtype": "probability", "response": 0.79, "trialnum": 3, "gender": "male", "qnum": 2}, {"story": "cooking", "time": 31098, "name": "Greg", "rt": 3536, "blocknum": 0, "qtype": "ungrammatical", "trialnum": 3, "gender": "male", "qnum": 2}, {"story": "cooking", "time": 42103, "name": "Brandon", "rt": 10989, "blocknum": 0, "qtype": "probability", "response": 0.62, "trialnum": 4, "gender": "male", "qnum": 3}, {"story": "cooking", "time": 42103, "name": "Brandon", "rt": 10989, "blocknum": 0, "qtype": "ungrammatical", "response": true, "trialnum": 4, "gender": "male", "qnum": 3}, {"story": "cooking", "time": 56745, "name": "Cassandra", "rt": 14627, "blocknum": 0, "qtype": "probability", "response": 0.47, "trialnum": 5, "gender": "female", "qnum": 4}, {"story": "cooking", "time": 56745, "name": "Cassandra", "rt": 14627, "blocknum": 0, "qtype": "ungrammatical", "response": true, "trialnum": 5, "gender": "female", "qnum": 4}, {"story": "cooking", "time": 64313, "name": "Victoria", "rt": 7552, "blocknum": 0, "qtype": "probability", "response": 0.84, "trialnum": 6, "gender": "female", "qnum": 5}, {"story": "cooking", "time": 64313, "name": "Victoria", "rt": 7552, "blocknum": 0, "qtype": "ungrammatical", "response": true, "trialnum": 6, "gender": "female", "qnum": 5}, {"story": "painting", "time": 68698, "name": "Jared", "rt": 4367, "blocknum": 1, "qtype": "probability", "response": 0.9, "trialnum": 8, "gender": "male", "qnum": 0}, {"story": "painting", "time": 68698, "name": "Jared", "rt": 4367, "blocknum": 1, "qtype": "ungrammatical", "trialnum": 8, "gender": "male", "qnum": 0}, {"story": "painting", "time": 83363, "name": "Elizabeth", "rt": 14657, "blocknum": 1, "qtype": "explanation", "response": "she was worried about getting paint on her clothes", "trialnum": 9, "gender": "female", "qnum": 1}, {"story": "painting", "time": 86982, "name": "Elizabeth", "rt": 3599, "blocknum": 1, "qtype": "probability", "response": 0.35, "trialnum": 10, "gender": "female", "qnum": 2}, {"story": "painting", "time": 86982, "name": "Elizabeth", "rt": 3599, "blocknum": 1, "qtype": "ungrammatical", "trialnum": 10, "gender": "female", "qnum": 2}, {"story": "painting", "time": 107054, "name": "Derek", "rt": 20054, "blocknum": 1, "qtype": "probability", "response": 0.72, "trialnum": 11, "gender": "male", "qnum": 3}, {"story": "painting", "time": 107054, "name": "Derek", "rt": 20054, "blocknum": 1, "qtype": "ungrammatical", "response": true, "trialnum": 11, "gender": "male", "qnum": 3}, {"story": "painting", "time": 113169, "name": "Joseph", "rt": 6098, "blocknum": 1, "qtype": "probability", "response": 0.59, "trialnum": 12, "gender": "male", "qnum": 4}, {"story": "painting", "time": 113169, "name": "Joseph", "rt": 6098, "blocknum": 1, "qtype": "ungrammatical", "response": true, "trialnum": 12, "gender": "male", "qnum": 4}, {"story": "painting", "time": 154664, "name": "Patrick", "rt": 41484, "blocknum": 1, "qtype": "probability", "response": 0.5, "trialnum": 13, "gender": "male", "qnum": 5}, {"story": "painting", "time": 154664, "name": "Patrick", "rt": 41484, "blocknum": 1, "qtype": "ungrammatical", "response": true, "trialnum": 13, "gender": "male", "qnum": 5}, {"story": "insomnia", "time": 161340, "name": "Jasmine", "rt": 6657, "blocknum": 2, "qtype": "probability", "response": 0.61, "trialnum": 15, "gender": "female", "qnum": 0}, {"story": "insomnia", "time": 161340, "name": "Jasmine", "rt": 6657, "blocknum": 2, "qtype": "ungrammatical", "trialnum": 15, "gender": "female", "qnum": 0}, {"story": "insomnia", "time": 189852, "name": "David", "rt": 28504, "blocknum": 2, "qtype": "explanation", "response": "he focuses easily", "trialnum": 16, "gender": "male", "qnum": 1}, {"story": "insomnia", "time": 192355, "name": "David", "rt": 2482, "blocknum": 2, "qtype": "probability", "response": 0.4, "trialnum": 17, "gender": "male", "qnum": 2}, {"story": "insomnia", "time": 192355, "name": "David", "rt": 2482, "blocknum": 2, "qtype": "ungrammatical", "trialnum": 17, "gender": "male", "qnum": 2}, {"story": "insomnia", "time": 199345, "name": "Alexis", "rt": 6978, "blocknum": 2, "qtype": "probability", "response": 0.47, "trialnum": 18, "gender": "female", "qnum": 3}, {"story": "insomnia", "time": 199345, "name": "Alexis", "rt": 6978, "blocknum": 2, "qtype": "ungrammatical", "response": false, "trialnum": 18, "gender": "female", "qnum": 3}, {"story": "insomnia", "time": 202701, "name": "Ethan", "rt": 3339, "blocknum": 2, "qtype": "probability", "response": 0.64, "trialnum": 19, "gender": "male", "qnum": 4}, {"story": "insomnia", "time": 202701, "name": "Ethan", "rt": 3339, "blocknum": 2, "qtype": "ungrammatical", "response": false, "trialnum": 19, "gender": "male", "qnum": 4}, {"story": "insomnia", "time": 207917, "name": "Gabrielle", "rt": 5200, "blocknum": 2, "qtype": "probability", "response": 0.57, "trialnum": 20, "gender": "female", "qnum": 5}, {"story": "insomnia", "time": 207917, "name": "Gabrielle", "rt": 5200, "blocknum": 2, "qtype": "ungrammatical", "response": false, "trialnum": 20, "gender": "female", "qnum": 5}, {"story": "reading", "time": 229838, "name": "Charles", "rt": 21902, "blocknum": 3, "qtype": "probability", "response": 0.77, "trialnum": 22, "gender": "male", "qnum": 0}, {"story": "reading", "time": 229838, "name": "Charles", "rt": 21902, "blocknum": 3, "qtype": "ungrammatical", "trialnum": 22, "gender": "male", "qnum": 0}, {"story": "reading", "time": 244544, "name": "Connor", "rt": 14698, "blocknum": 3, "qtype": "explanation", "response": "his vocabulary is already quite high", "trialnum": 23, "gender": "male", "qnum": 1}, {"story": "reading", "time": 246593, "name": "Connor", "rt": 2030, "blocknum": 3, "qtype": "probability", "response": 0.66, "trialnum": 24, "gender": "male", "qnum": 2}, {"story": "reading", "time": 246593, "name": "Connor", "rt": 2030, "blocknum": 3, "qtype": "ungrammatical", "trialnum": 24, "gender": "male", "qnum": 2}, {"story": "reading", "time": 252022, "name": "Lauren", "rt": 5414, "blocknum": 3, "qtype": "probability", "response": 0.69, "trialnum": 25, "gender": "female", "qnum": 3}, {"story": "reading", "time": 252022, "name": "Lauren", "rt": 5414, "blocknum": 3, "qtype": "ungrammatical", "response": false, "trialnum": 25, "gender": "female", "qnum": 3}, {"story": "reading", "time": 255775, "name": "Emily", "rt": 3739, "blocknum": 3, "qtype": "probability", "response": 0.78, "trialnum": 26, "gender": "female", "qnum": 4}, {"story": "reading", "time": 255775, "name": "Emily", "rt": 3739, "blocknum": 3, "qtype": "ungrammatical", "response": false, "trialnum": 26, "gender": "female", "qnum": 4}, {"story": "reading", "time": 258370, "name": "Amanda", "rt": 2584, "blocknum": 3, "qtype": "probability", "response": 0.8, "trialnum": 27, "gender": "female", "qnum": 5}, {"story": "reading", "time": 258370, "name": "Amanda", "rt": 2584, "blocknum": 3, "qtype": "ungrammatical", "response": false, "trialnum": 27, "gender": "female", "qnum": 5}, {"story": "beach", "time": 261856, "name": "Christina", "rt": 3465, "blocknum": 4, "qtype": "probability", "response": 0.6, "trialnum": 29, "gender": "female", "qnum": 0}, {"story": "beach", "time": 261856, "name": "Christina", "rt": 3465, "blocknum": 4, "qtype": "ungrammatical", "trialnum": 29, "gender": "female", "qnum": 0}, {"story": "beach", "time": 268767, "name": "Kim", "rt": 6905, "blocknum": 4, "qtype": "explanation", "response": "she used sunscreen", "trialnum": 30, "gender": "female", "qnum": 1}, {"story": "beach", "time": 270590, "name": "Kim", "rt": 1803, "blocknum": 4, "qtype": "probability", "response": 0.68, "trialnum": 31, "gender": "female", "qnum": 2}, {"story": "beach", "time": 270590, "name": "Kim", "rt": 1803, "blocknum": 4, "qtype": "ungrammatical", "trialnum": 31, "gender": "female", "qnum": 2}, {"story": "beach", "time": 274328, "name": "Allison", "rt": 3726, "blocknum": 4, "qtype": "probability", "response": 0.63, "trialnum": 32, "gender": "female", "qnum": 3}, {"story": "beach", "time": 274328, "name": "Allison", "rt": 3726, "blocknum": 4, "qtype": "ungrammatical", "response": false, "trialnum": 32, "gender": "female", "qnum": 3}, {"story": "beach", "time": 276560, "name": "Nathan", "rt": 2215, "blocknum": 4, "qtype": "probability", "response": 0.7, "trialnum": 33, "gender": "male", "qnum": 4}, {"story": "beach", "time": 276560, "name": "Nathan", "rt": 2215, "blocknum": 4, "qtype": "ungrammatical", "response": false, "trialnum": 33, "gender": "male", "qnum": 4}, {"story": "beach", "time": 279048, "name": "Steven", "rt": 2477, "blocknum": 4, "qtype": "probability", "response": 0.72, "trialnum": 34, "gender": "male", "qnum": 5}, {"story": "beach", "time": 279048, "name": "Steven", "rt": 2477, "blocknum": 4, "qtype": "ungrammatical", "response": false, "trialnum": 34, "gender": "male", "qnum": 5}, {"story": "Japan", "time": 281930, "name": "Samuel", "rt": 2868, "blocknum": 5, "qtype": "probability", "response": 0.92, "trialnum": 36, "gender": "male", "qnum": 0}, {"story": "Japan", "time": 281930, "name": "Samuel", "rt": 2868, "blocknum": 5, "qtype": "ungrammatical", "trialnum": 36, "gender": "male", "qnum": 0}, {"story": "Japan", "time": 293349, "name": "Jacqueline", "rt": 11411, "blocknum": 5, "qtype": "explanation", "response": "only went to business meetings", "trialnum": 37, "gender": "female", "qnum": 1}, {"story": "Japan", "time": 296811, "name": "Jacqueline", "rt": 3439, "blocknum": 5, "qtype": "probability", "response": 0.87, "trialnum": 38, "gender": "female", "qnum": 2}, {"story": "Japan", "time": 296811, "name": "Jacqueline", "rt": 3439, "blocknum": 5, "qtype": "ungrammatical", "trialnum": 38, "gender": "female", "qnum": 2}, {"story": "Japan", "time": 299473, "name": "Julia", "rt": 2649, "blocknum": 5, "qtype": "probability", "response": 0.81, "trialnum": 39, "gender": "female", "qnum": 3}, {"story": "Japan", "time": 299473, "name": "Julia", "rt": 2649, "blocknum": 5, "qtype": "ungrammatical", "response": false, "trialnum": 39, "gender": "female", "qnum": 3}, {"story": "Japan", "time": 302135, "name": "Shannon", "rt": 2652, "blocknum": 5, "qtype": "probability", "response": 0.87, "trialnum": 40, "gender": "female", "qnum": 4}, {"story": "Japan", "time": 302135, "name": "Shannon", "rt": 2652, "blocknum": 5, "qtype": "ungrammatical", "response": false, "trialnum": 40, "gender": "female", "qnum": 4}, {"story": "Japan", "time": 304557, "name": "Michelle", "rt": 2406, "blocknum": 5, "qtype": "probability", "response": 0.82, "trialnum": 41, "gender": "female", "qnum": 5}, {"story": "Japan", "time": 304557, "name": "Michelle", "rt": 2406, "blocknum": 5, "qtype": "ungrammatical", "response": false, "trialnum": 41, "gender": "female", "qnum": 5}, {"story": "coffee", "time": 307285, "name": "Sean", "rt": 2713, "blocknum": 6, "qtype": "probability", "response": 0.7, "trialnum": 43, "gender": "male", "qnum": 0}, {"story": "coffee", "time": 307285, "name": "Sean", "rt": 2713, "blocknum": 6, "qtype": "ungrammatical", "trialnum": 43, "gender": "male", "qnum": 0}, {"story": "coffee", "time": 316937, "name": "Will", "rt": 9647, "blocknum": 6, "qtype": "explanation", "response": "he drank it early in the day", "trialnum": 44, "gender": "male", "qnum": 1}, {"story": "coffee", "time": 318687, "name": "Will", "rt": 1733, "blocknum": 6, "qtype": "probability", "response": 0.68, "trialnum": 45, "gender": "male", "qnum": 2}, {"story": "coffee", "time": 318687, "name": "Will", "rt": 1733, "blocknum": 6, "qtype": "ungrammatical", "trialnum": 45, "gender": "male", "qnum": 2}, {"story": "coffee", "time": 321593, "name": "Erica", "rt": 2893, "blocknum": 6, "qtype": "probability", "response": 0.77, "trialnum": 46, "gender": "female", "qnum": 3}, {"story": "coffee", "time": 321593, "name": "Erica", "rt": 2893, "blocknum": 6, "qtype": "ungrammatical", "response": false, "trialnum": 46, "gender": "female", "qnum": 3}, {"story": "coffee", "time": 323317, "name": "Scott", "rt": 1710, "blocknum": 6, "qtype": "probability", "response": 0.74, "trialnum": 47, "gender": "male", "qnum": 4}, {"story": "coffee", "time": 323317, "name": "Scott", "rt": 1710, "blocknum": 6, "qtype": "ungrammatical", "response": false, "trialnum": 47, "gender": "male", "qnum": 4}, {"story": "coffee", "time": 326376, "name": "Amber", "rt": 3042, "blocknum": 6, "qtype": "probability", "response": 0.76, "trialnum": 48, "gender": "female", "qnum": 5}, {"story": "coffee", "time": 326376, "name": "Amber", "rt": 3042, "blocknum": 6, "qtype": "ungrammatical", "response": false, "trialnum": 48, "gender": "female", "qnum": 5}, {"story": "guitar", "time": 329175, "name": "Katherine", "rt": 2784, "blocknum": 7, "qtype": "probability", "response": 0.61, "trialnum": 50, "gender": "female", "qnum": 0}, {"story": "guitar", "time": 329175, "name": "Katherine", "rt": 2784, "blocknum": 7, "qtype": "ungrammatical", "trialnum": 50, "gender": "female", "qnum": 0}, {"story": "guitar", "time": 337848, "name": "Brian", "rt": 8668, "blocknum": 7, "qtype": "explanation", "response": "he used lots of lotion", "trialnum": 51, "gender": "male", "qnum": 1}, {"story": "guitar", "time": 340498, "name": "Brian", "rt": 2631, "blocknum": 7, "qtype": "probability", "response": 0.59, "trialnum": 52, "gender": "male", "qnum": 2}, {"story": "guitar", "time": 340498, "name": "Brian", "rt": 2631, "blocknum": 7, "qtype": "ungrammatical", "trialnum": 52, "gender": "male", "qnum": 2}, {"story": "guitar", "time": 344729, "name": "Luis", "rt": 4218, "blocknum": 7, "qtype": "probability", "response": 0.6, "trialnum": 53, "gender": "male", "qnum": 3}, {"story": "guitar", "time": 344729, "name": "Luis", "rt": 4218, "blocknum": 7, "qtype": "ungrammatical", "response": false, "trialnum": 53, "gender": "male", "qnum": 3}, {"story": "guitar", "time": 347201, "name": "Morgan", "rt": 2454, "blocknum": 7, "qtype": "probability", "response": 0.66, "trialnum": 54, "gender": "female", "qnum": 4}, {"story": "guitar", "time": 347201, "name": "Morgan", "rt": 2454, "blocknum": 7, "qtype": "ungrammatical", "response": false, "trialnum": 54, "gender": "female", "qnum": 4}, {"story": "guitar", "time": 349050, "name": "Sarah", "rt": 1838, "blocknum": 7, "qtype": "probability", "response": 0.74, "trialnum": 55, "gender": "female", "qnum": 5}, {"story": "guitar", "time": 349050, "name": "Sarah", "rt": 1838, "blocknum": 7, "qtype": "ungrammatical", "response": false, "trialnum": 55, "gender": "female", "qnum": 5}, {"story": "fitness", "time": 351719, "name": "Tyler", "rt": 2658, "blocknum": 8, "qtype": "probability", "response": 0.78, "trialnum": 57, "gender": "male", "qnum": 0}, {"story": "fitness", "time": 351719, "name": "Tyler", "rt": 2658, "blocknum": 8, "qtype": "ungrammatical", "trialnum": 57, "gender": "male", "qnum": 0}, {"story": "fitness", "time": 383348, "name": "Courtney", "rt": 31617, "blocknum": 8, "qtype": "explanation", "response": "she gained muscle", "trialnum": 58, "gender": "female", "qnum": 1}, {"story": "fitness", "time": 385755, "name": "Courtney", "rt": 2388, "blocknum": 8, "qtype": "probability", "response": 0.81, "trialnum": 59, "gender": "female", "qnum": 2}, {"story": "fitness", "time": 385755, "name": "Courtney", "rt": 2388, "blocknum": 8, "qtype": "ungrammatical", "trialnum": 59, "gender": "female", "qnum": 2}, {"story": "fitness", "time": 389565, "name": "Michael", "rt": 3797, "blocknum": 8, "qtype": "probability", "response": 0.68, "trialnum": 60, "gender": "male", "qnum": 3}, {"story": "fitness", "time": 389565, "name": "Michael", "rt": 3797, "blocknum": 8, "qtype": "ungrammatical", "response": false, "trialnum": 60, "gender": "male", "qnum": 3}, {"story": "fitness", "time": 392622, "name": "Alexandra", "rt": 3040, "blocknum": 8, "qtype": "probability", "response": 0.77, "trialnum": 61, "gender": "female", "qnum": 4}, {"story": "fitness", "time": 392622, "name": "Alexandra", "rt": 3040, "blocknum": 8, "qtype": "ungrammatical", "response": false, "trialnum": 61, "gender": "female", "qnum": 4}, {"story": "fitness", "time": 394690, "name": "Jenna", "rt": 2056, "blocknum": 8, "qtype": "probability", "response": 0.81, "trialnum": 62, "gender": "female", "qnum": 5}, {"story": "fitness", "time": 394690, "name": "Jenna", "rt": 2056, "blocknum": 8, "qtype": "ungrammatical", "response": false, "trialnum": 62, "gender": "female", "qnum": 5}], "events": [{"type": "position", "time": 440, "x": 0, "y": 0}, {"type": "position", "time": 504, "x": 0, "y": 0}, {"type": "position", "time": 519, "x": 0, "y": 0}, {"type": "position", "time": 566, "x": 0, "y": 0}, {"type": "position", "time": 605, "x": 0, "y": 0}, {"type": "position", "time": 654, "x": 0, "y": 0}, {"type": "position", "time": 710, "x": 0, "y": 0}, {"type": "position", "time": 780, "x": 0, "y": 0}, {"type": "position", "time": 813, "x": 0, "y": 0}, {"type": "position", "time": 855, "x": 0, "y": 0}, {"type": "position", "time": 908, "x": 0, "y": 0}, {"type": "position", "time": 955, "x": 0, "y": 0}, {"type": "position", "time": 1004, "x": 0, "y": 0}, {"type": "position", "time": 1055, "x": 0, "y": 0}, {"type": "position", "time": 1105, "x": 0, "y": 0}, {"type": "position", "time": 1215, "x": 0, "y": 0}, {"type": "position", "time": 1330, "x": 0, "y": 0}, {"type": "position", "time": 1397, "x": 0, "y": 0}, {"type": "position", "time": 1408, "x": 0, "y": 0}, {"type": "position", "time": 1455, "x": 0, "y": 0}, {"type": "position", "time": 1499, "x": 0, "y": 0}, {"type": "position", "time": 1563, "x": 0, "y": 0}, {"type": "position", "time": 1671, "x": 0, "y": 0}, {"type": "position", "time": 1688, "x": 0, "y": 0}, {"type": "position", "time": 1730, "x": 0, "y": 0}, {"type": "position", "time": 1778, "x": 0, "y": 0}, {"type": "position", "time": 1821, "x": 0, "y": 0}, {"type": "position", "time": 1879, "x": 0, "y": 0}, {"type": "position", "time": 1930, "x": 0, "y": 0}, {"type": "position", "time": 1978, "x": 0, "y": 0}, {"type": "position", "time": 2031, "x": 0, "y": 0}, {"type": "position", "time": 2079, "x": 0, "y": 0}, {"type": "position", "time": 2127, "x": 0, "y": 0}, {"type": "position", "time": 2290, "x": 0, "y": 0}, {"type": "position", "time": 2311, "x": 0, "y": 0}, {"type": "position", "time": 2360, "x": 0, "y": 0}, {"type": "position", "time": 2430, "x": 0, "y": 0}, {"type": "position", "time": 2456, "x": 0, "y": 0}, {"type": "position", "time": 2491, "x": 0, "y": 0}, {"type": "position", "time": 2541, "x": 0, "y": 0}, {"type": "position", "time": 2591, "x": 0, "y": 0}, {"type": "position", "time": 2642, "x": 0, "y": 0}, {"type": "position", "time": 2690, "x": 0, "y": 0}, {"type": "position", "time": 2741, "x": 0, "y": 0}, {"type": "position", "time": 2790, "x": 0, "y": 0}, {"type": "position", "time": 2841, "x": 0, "y": 0}, {"type": "position", "time": 2890, "x": 0, "y": 0}, {"type": "position", "time": 2941, "x": 0, "y": 0}, {"type": "position", "time": 2993, "x": 0, "y": 0}, {"type": "position", "time": 3128, "x": 0, "y": 0}, {"type": "position", "time": 3136, "x": 0, "y": 0}, {"type": "position", "time": 3183, "x": 0, "y": 0}, {"type": "position", "time": 3232, "x": 0, "y": 0}, {"type": "position", "time": 3283, "x": 0, "y": 0}, {"type": "position", "time": 3329, "x": 0, "y": 0}, {"type": "position", "time": 3382, "x": 0, "y": 0}, {"type": "position", "time": 3428, "x": 0, "y": 0}, {"type": "position", "time": 3482, "x": 0, "y": 0}, {"type": "position", "time": 3528, "x": 0, "y": 0}, {"type": "position", "time": 3579, "x": 0, "y": 0}, {"type": "position", "time": 3631, "x": 0, "y": 0}, {"type": "position", "time": 3679, "x": 0, "y": 0}, {"type": "position", "time": 3823, "x": 0.7625, "y": 0.24333333333333335}, {"type": "position", "time": 3823, "x": 0.7625, "y": 0.24333333333333335}, {"type": "position", "time": 3872, "x": 0.8, "y": 0.35333333333333333}, {"type": "position", "time": 3923, "x": 0.82125, "y": 0.42}, {"type": "position", "time": 3973, "x": 0.82625, "y": 0.43166666666666664}, {"type": "position", "time": 4023, "x": 0.8275, "y": 0.43166666666666664}, {"type": "position", "time": 4203, "x": 0.8275, "y": 0.43166666666666664}, {"type": "position", "time": 4224, "x": 0.8275, "y": 0.43166666666666664}, {"type": "position", "time": 4258, "x": 0.8275, "y": 0.43166666666666664}, {"type": "position", "time": 4303, "x": 0.8275, "y": 0.43166666666666664}, {"type": "position", "time": 4354, "x": 0.8275, "y": 0.43166666666666664}, {"type": "position", "time": 4405, "x": 0.8275, "y": 0.43166666666666664}, {"type": "position", "time": 4457, "x": 0.8275, "y": 0.43166666666666664}, {"type": "position", "time": 4518, "x": 0.8275, "y": 0.43166666666666664}, {"type": "position", "time": 4567, "x": 0.8275, "y": 0.43166666666666664}, {"type": "position", "time": 4603, "x": 0.8275, "y": 0.43166666666666664}, {"type": "position", "time": 4654, "x": 0.82, "y": 0.43833333333333335}, {"type": "position", "time": 4704, "x": 0.79375, "y": 0.45166666666666666}, {"type": "position", "time": 4753, "x": 0.7825, "y": 0.46}, {"type": "position", "time": 4805, "x": 0.78125, "y": 0.46}, {"type": "position", "time": 4854, "x": 0.78, "y": 0.4633333333333333}, {"type": "position", "time": 4904, "x": 0.78, "y": 0.4633333333333333}, {"type": "position", "time": 4956, "x": 0.78, "y": 0.4633333333333333}, {"type": "position", "time": 5004, "x": 0.78, "y": 0.4633333333333333}, {"type": "position", "time": 5054, "x": 0.78, "y": 0.4633333333333333}, {"type": "position", "time": 5120, "x": 0.78, "y": 0.4633333333333333}, {"type": "click", "time": 5160, "x": 0.78, "y": 0.4633333333333333}, {"type": "position", "time": 5169, "x": 0.78, "y": 0.4633333333333333}, {"type": "position", "time": 5207, "x": 0.78, "y": 0.4633333333333333}, {"type": "position", "time": 5255, "x": 0.78, "y": 0.4633333333333333}, {"type": "position", "time": 5304, "x": 0.78, "y": 0.4633333333333333}, {"type": "position", "time": 5355, "x": 0.78, "y": 0.4633333333333333}, {"type": "position", "time": 5404, "x": 0.78, "y": 0.4633333333333333}, {"type": "position", "time": 5453, "x": 0.78, "y": 0.4633333333333333}, {"type": "position", "time": 5505, "x": 0.78, "y": 0.4633333333333333}, {"type": "position", "time": 5556, "x": 0.78, "y": 0.4633333333333333}, {"type": "position", "time": 5605, "x": 0.78, "y": 0.4633333333333333}, {"type": "position", "time": 5654, "x": 0.78, "y": 0.4633333333333333}, {"type": "position", "time": 5705, "x": 0.78, "y": 0.4633333333333333}, {"type": "position", "time": 5756, "x": 0.78, "y": 0.4633333333333333}, {"type": "position", "time": 5805, "x": 0.78, "y": 0.4633333333333333}, {"type": "position", "time": 5854, "x": 0.78, "y": 0.4633333333333333}, {"type": "position", "time": 5904, "x": 0.78, "y": 0.4633333333333333}, {"type": "position", "time": 5955, "x": 0.78, "y": 0.4633333333333333}, {"type": "position", "time": 6005, "x": 0.78, "y": 0.4633333333333333}, {"type": "position", "time": 6055, "x": 0.78, "y": 0.4633333333333333}, {"type": "position", "time": 6104, "x": 0.78, "y": 0.4633333333333333}, {"type": "position", "time": 6153, "x": 0.78, "y": 0.4633333333333333}, {"type": "position", "time": 6204, "x": 0.78, "y": 0.4633333333333333}, {"type": "position", "time": 6256, "x": 0.78, "y": 0.4633333333333333}, {"type": "position", "time": 6303, "x": 0.78, "y": 0.4633333333333333}, {"type": "position", "time": 6354, "x": 0.78, "y": 0.4633333333333333}, {"type": "position", "time": 6404, "x": 0.78, "y": 0.4633333333333333}, {"type": "position", "time": 6453, "x": 0.78, "y": 0.4633333333333333}, {"type": "position", "time": 6506, "x": 0.78, "y": 0.4633333333333333}, {"type": "position", "time": 6557, "x": 0.78, "y": 0.455}, {"type": "position", "time": 6609, "x": 0.78625, "y": 0.38}, {"type": "position", "time": 6660, "x": 0.805, "y": 0.2783333333333333}, {"type": "position", "time": 6707, "x": 0.80875, "y": 0.26}, {"type": "position", "time": 6770, "x": 0.81, "y": 0.255}, {"type": "position", "time": 6803, "x": 0.81, "y": 0.255}, {"type": "position", "time": 6854, "x": 0.81, "y": 0.255}, {"type": "position", "time": 6904, "x": 0.81, "y": 0.255}, {"type": "position", "time": 6954, "x": 0.81, "y": 0.255}, {"type": "position", "time": 7008, "x": 0.81, "y": 0.255}, {"type": "position", "time": 7057, "x": 0.81, "y": 0.255}, {"type": "position", "time": 7107, "x": 0.81, "y": 0.255}, {"type": "position", "time": 7157, "x": 0.81, "y": 0.255}, {"type": "position", "time": 7208, "x": 0.81, "y": 0.255}, {"type": "position", "time": 7254, "x": 0.81, "y": 0.255}, {"type": "position", "time": 7303, "x": 0.81, "y": 0.255}, {"type": "position", "time": 7355, "x": 0.81, "y": 0.255}, {"type": "position", "time": 7404, "x": 0.81, "y": 0.255}, {"type": "position", "time": 7455, "x": 0.81, "y": 0.255}, {"type": "position", "time": 7503, "x": 0.81, "y": 0.255}, {"type": "position", "time": 7556, "x": 0.81, "y": 0.255}, {"type": "position", "time": 7607, "x": 0.81, "y": 0.255}, {"type": "position", "time": 7657, "x": 0.81, "y": 0.255}, {"type": "position", "time": 7705, "x": 0.81, "y": 0.255}, {"type": "position", "time": 7756, "x": 0.81, "y": 0.255}, {"type": "position", "time": 7807, "x": 0.81, "y": 0.255}, {"type": "position", "time": 7856, "x": 0.81, "y": 0.255}, {"type": "position", "time": 7904, "x": 0.81, "y": 0.255}, {"type": "position", "time": 7954, "x": 0.81, "y": 0.255}, {"type": "position", "time": 8003, "x": 0.81, "y": 0.255}, {"type": "position", "time": 8085, "x": 0.81, "y": 0.255}, {"type": "position", "time": 8104, "x": 0.81, "y": 0.255}, {"type": "position", "time": 8154, "x": 0.81, "y": 0.255}, {"type": "position", "time": 8227, "x": 0.81, "y": 0.255}, {"type": "position", "time": 8259, "x": 0.81375, "y": 0.20166666666666666}, {"type": "position", "time": 8328, "x": 0.90875, "y": 0.21666666666666667}, {"type": "position", "time": 8369, "x": 1.015, "y": 0.24}, {"type": "position", "time": 8438, "x": 1.07625, "y": 0.25166666666666665}, {"type": "position", "time": 8485, "x": 1.0675, "y": 0.25333333333333335}, {"type": "position", "time": 8528, "x": 1.0625, "y": 0.24166666666666667}, {"type": "position", "time": 8576, "x": 1.03375, "y": 0.22833333333333333}, {"type": "position", "time": 8623, "x": 0.92375, "y": 0.18666666666666668}, {"type": "position", "time": 8697, "x": 0.73, "y": 0.16833333333333333}, {"type": "position", "time": 8761, "x": 0.69375, "y": 0.18}, {"type": "position", "time": 8783, "x": 0.69375, "y": 0.18166666666666667}, {"type": "position", "time": 8819, "x": 0.69125, "y": 0.18166666666666667}, {"type": "position", "time": 8861, "x": 0.69125, "y": 0.18166666666666667}, {"type": "position", "time": 8912, "x": 0.69125, "y": 0.18166666666666667}, {"type": "position", "time": 8962, "x": 0.695, "y": 0.18166666666666667}, {"type": "position", "time": 9013, "x": 0.84, "y": 0.19}, {"type": "position", "time": 9062, "x": 0.95375, "y": 0.23666666666666666}, {"type": "position", "time": 9114, "x": 0.97875, "y": 0.25166666666666665}, {"type": "position", "time": 9161, "x": 0.98375, "y": 0.25166666666666665}, {"type": "position", "time": 9212, "x": 0.98375, "y": 0.25166666666666665}, {"type": "position", "time": 9261, "x": 0.98375, "y": 0.25166666666666665}, {"type": "position", "time": 9316, "x": 0.98375, "y": 0.25333333333333335}, {"type": "position", "time": 9361, "x": 0.96375, "y": 0.2816666666666667}, {"type": "position", "time": 9413, "x": 0.88875, "y": 0.37333333333333335}, {"type": "position", "time": 9461, "x": 0.8325, "y": 0.43333333333333335}, {"type": "position", "time": 9512, "x": 0.8025, "y": 0.445}, {"type": "position", "time": 9560, "x": 0.8025, "y": 0.445}, {"type": "position", "time": 9628, "x": 0.8025, "y": 0.445}, {"type": "position", "time": 9660, "x": 0.8025, "y": 0.445}, {"type": "position", "time": 9713, "x": 0.8025, "y": 0.445}, {"type": "position", "time": 9761, "x": 0.8075, "y": 0.445}, {"type": "position", "time": 9813, "x": 0.8725, "y": 0.47}, {"type": "position", "time": 9861, "x": 0.95375, "y": 0.49333333333333335}, {"type": "position", "time": 9911, "x": 0.985, "y": 0.5033333333333333}, {"type": "position", "time": 10053, "x": 0.98375, "y": 0.515}, {"type": "position", "time": 10054, "x": 0.98375, "y": 0.515}, {"type": "position", "time": 10103, "x": 0.975, "y": 0.5233333333333333}, {"type": "position", "time": 10154, "x": 0.97, "y": 0.53}, {"type": "position", "time": 10203, "x": 0.965, "y": 0.5383333333333333}, {"type": "position", "time": 10256, "x": 0.965, "y": 0.5433333333333333}, {"type": "position", "time": 10304, "x": 0.965, "y": 0.5483333333333333}, {"type": "position", "time": 10355, "x": 0.96375, "y": 0.5516666666666666}, {"type": "position", "time": 10406, "x": 0.9625, "y": 0.5516666666666666}, {"type": "position", "time": 10453, "x": 0.9625, "y": 0.5533333333333333}, {"type": "position", "time": 10529, "x": 0.9575, "y": 0.5566666666666666}, {"type": "position", "time": 10554, "x": 0.95625, "y": 0.5583333333333333}, {"type": "position", "time": 10604, "x": 0.95125, "y": 0.5633333333333334}, {"type": "position", "time": 10657, "x": 0.94625, "y": 0.57}, {"type": "position", "time": 10703, "x": 0.94375, "y": 0.5733333333333334}, {"type": "position", "time": 10754, "x": 0.9425, "y": 0.575}, {"type": "position", "time": 10853, "x": 0.9425, "y": 0.575}, {"type": "position", "time": 10867, "x": 0.9425, "y": 0.575}, {"type": "position", "time": 10905, "x": 0.9425, "y": 0.575}, {"type": "position", "time": 10954, "x": 0.9425, "y": 0.575}, {"type": "position", "time": 11005, "x": 0.9425, "y": 0.575}, {"type": "position", "time": 11054, "x": 0.9425, "y": 0.575}, {"type": "position", "time": 11104, "x": 0.9425, "y": 0.575}, {"type": "position", "time": 11154, "x": 0.9425, "y": 0.575}, {"type": "position", "time": 11203, "x": 0.9425, "y": 0.575}, {"type": "position", "time": 11253, "x": 0.9425, "y": 0.575}, {"type": "position", "time": 11356, "x": 0.945, "y": 0.5666666666666667}, {"type": "position", "time": 11378, "x": 0.945, "y": 0.5666666666666667}, {"type": "position", "time": 11466, "x": 0.945, "y": 0.565}, {"type": "position", "time": 11468, "x": 0.945, "y": 0.565}, {"type": "position", "time": 11575, "x": 0.945, "y": 0.565}, {"type": "position", "time": 11579, "x": 0.945, "y": 0.565}, {"type": "position", "time": 11626, "x": 0.945, "y": 0.565}, {"type": "position", "time": 11678, "x": 0.945, "y": 0.565}, {"type": "position", "time": 11727, "x": 0.945, "y": 0.565}, {"type": "position", "time": 11776, "x": 0.945, "y": 0.565}, {"type": "position", "time": 11825, "x": 0.945, "y": 0.565}, {"type": "position", "time": 11878, "x": 0.945, "y": 0.565}, {"type": "position", "time": 11927, "x": 0.945, "y": 0.565}, {"type": "position", "time": 11978, "x": 0.945, "y": 0.565}, {"type": "position", "time": 12027, "x": 0.945, "y": 0.565}, {"type": "position", "time": 12076, "x": 0.945, "y": 0.565}, {"type": "position", "time": 12126, "x": 0.945, "y": 0.565}, {"type": "position", "time": 12177, "x": 0.945, "y": 0.565}, {"type": "position", "time": 12346, "x": 0.945, "y": 0.565}, {"type": "position", "time": 12351, "x": 0.945, "y": 0.565}, {"type": "position", "time": 12398, "x": 0.945, "y": 0.565}, {"type": "position", "time": 12447, "x": 0.945, "y": 0.565}, {"type": "position", "time": 12496, "x": 0.945, "y": 0.565}, {"type": "position", "time": 12546, "x": 0.945, "y": 0.565}, {"type": "position", "time": 12617, "x": 0.945, "y": 0.565}, {"type": "position", "time": 12646, "x": 0.945, "y": 0.565}, {"type": "position", "time": 12696, "x": 0.945, "y": 0.565}, {"type": "position", "time": 12746, "x": 0.945, "y": 0.565}, {"type": "position", "time": 12796, "x": 0.945, "y": 0.565}, {"type": "position", "time": 12846, "x": 0.945, "y": 0.565}, {"type": "position", "time": 12895, "x": 0.945, "y": 0.565}, {"type": "position", "time": 12946, "x": 0.945, "y": 0.565}, {"type": "position", "time": 13042, "x": 0.945, "y": 0.565}, {"type": "position", "time": 13045, "x": 0.945, "y": 0.565}, {"type": "slider", "time": 13090, "value": 0.78}, {"type": "position", "time": 13097, "x": 0.945, "y": 0.565}, {"type": "position", "time": 13149, "x": 0.945, "y": 0.565}, {"type": "position", "time": 13196, "x": 0.945, "y": 0.565}, {"type": "position", "time": 13246, "x": 0.945, "y": 0.565}, {"type": "position", "time": 13295, "x": 0.945, "y": 0.565}, {"type": "position", "time": 13346, "x": 0.945, "y": 0.565}, {"type": "position", "time": 13396, "x": 0.945, "y": 0.565}, {"type": "position", "time": 13447, "x": 0.945, "y": 0.565}, {"type": "position", "time": 13497, "x": 0.945, "y": 0.565}, {"type": "position", "time": 13546, "x": 0.945, "y": 0.565}, {"type": "position", "time": 13595, "x": 0.945, "y": 0.565}, {"type": "position", "time": 13645, "x": 0.945, "y": 0.565}, {"type": "position", "time": 13753, "x": 0.945, "y": 0.565}, {"type": "position", "time": 13754, "x": 0.945, "y": 0.565}, {"type": "position", "time": 13803, "x": 0.945, "y": 0.565}, {"type": "position", "time": 13854, "x": 0.945, "y": 0.565}, {"type": "position", "time": 13904, "x": 0.945, "y": 0.565}, {"type": "position", "time": 13954, "x": 0.945, "y": 0.565}, {"type": "position", "time": 14006, "x": 0.945, "y": 0.565}, {"type": "position", "time": 14055, "x": 0.945, "y": 0.565}, {"type": "position", "time": 14104, "x": 0.945, "y": 0.565}, {"type": "position", "time": 14155, "x": 0.94, "y": 0.5666666666666667}, {"type": "position", "time": 14205, "x": 0.8925, "y": 0.59}, {"type": "position", "time": 14256, "x": 0.82125, "y": 0.6183333333333333}, {"type": "position", "time": 14305, "x": 0.79875, "y": 0.63}, {"type": "position", "time": 14354, "x": 0.795, "y": 0.6333333333333333}, {"type": "position", "time": 14404, "x": 0.79375, "y": 0.6333333333333333}, {"type": "position", "time": 14519, "x": 0.79375, "y": 0.6333333333333333}, {"type": "position", "time": 14519, "x": 0.79375, "y": 0.6333333333333333}, {"type": "position", "time": 14625, "x": 0.79375, "y": 0.635}, {"type": "position", "time": 14625, "x": 0.79375, "y": 0.635}, {"type": "position", "time": 14676, "x": 0.7875, "y": 0.6466666666666666}, {"type": "position", "time": 14726, "x": 0.78125, "y": 0.66}, {"type": "position", "time": 14909, "x": 0.7775, "y": 0.6666666666666666}, {"type": "position", "time": 14998, "x": 0.7775, "y": 0.6666666666666666}, {"type": "position", "time": 15002, "x": 0.7775, "y": 0.6666666666666666}, {"type": "position", "time": 15050, "x": 0.77125, "y": 0.6833333333333333}, {"type": "position", "time": 15139, "x": 0.77125, "y": 0.6833333333333333}, {"type": "position", "time": 15150, "x": 0.77125, "y": 0.6833333333333333}, {"type": "position", "time": 15199, "x": 0.77125, "y": 0.6816666666666666}, {"type": "position", "time": 15286, "x": 0.77125, "y": 0.65}, {"type": "position", "time": 15333, "x": 0.77125, "y": 0.6316666666666667}, {"type": "position", "time": 15373, "x": 0.77125, "y": 0.6283333333333333}, {"type": "position", "time": 15403, "x": 0.77125, "y": 0.6283333333333333}, {"type": "position", "time": 15452, "x": 0.77125, "y": 0.6283333333333333}, {"type": "position", "time": 15529, "x": 0.77125, "y": 0.6283333333333333}, {"type": "position", "time": 15549, "x": 0.77125, "y": 0.6283333333333333}, {"type": "click", "time": 15573, "x": 0.77125, "y": 0.6283333333333333}, {"type": "position", "time": 15602, "x": 0.77125, "y": 0.6283333333333333}, {"type": "position", "time": 15671, "x": 0.77125, "y": 0.6283333333333333}, {"type": "position", "time": 15704, "x": 0.77125, "y": 0.6283333333333333}, {"type": "position", "time": 15748, "x": 0.77125, "y": 0.6283333333333333}, {"type": "position", "time": 15813, "x": 0.77125, "y": 0.6283333333333333}, {"type": "position", "time": 15865, "x": 0.77125, "y": 0.6416666666666667}, {"type": "position", "time": 15936, "x": 0.77, "y": 0.665}, {"type": "position", "time": 15951, "x": 0.77, "y": 0.665}, {"type": "position", "time": 15999, "x": 0.77, "y": 0.665}, {"type": "position", "time": 16051, "x": 0.77, "y": 0.665}, {"type": "position", "time": 16099, "x": 0.77, "y": 0.665}, {"type": "click", "time": 16140, "x": 0.77, "y": 0.665}, {"type": "position", "time": 16538, "x": 0.77, "y": 0.665}, {"type": "position", "time": 16564, "x": 0.77, "y": 0.665}, {"type": "position", "time": 16589, "x": 0.77, "y": 0.665}, {"type": "position", "time": 16643, "x": 0.77, "y": 0.665}, {"type": "position", "time": 16692, "x": 0.77, "y": 0.665}, {"type": "position", "time": 16738, "x": 0.77, "y": 0.665}, {"type": "position", "time": 16790, "x": 0.77, "y": 0.665}, {"type": "position", "time": 16840, "x": 0.77, "y": 0.665}, {"type": "position", "time": 16891, "x": 0.77, "y": 0.665}, {"type": "position", "time": 16938, "x": 0.77, "y": 0.665}, {"type": "position", "time": 16991, "x": 0.77, "y": 0.665}, {"type": "position", "time": 17039, "x": 0.7775, "y": 0.6366666666666667}, {"type": "position", "time": 17088, "x": 0.79375, "y": 0.5983333333333334}, {"type": "position", "time": 17139, "x": 0.80125, "y": 0.5883333333333334}, {"type": "position", "time": 17193, "x": 0.8025, "y": 0.5883333333333334}, {"type": "position", "time": 17240, "x": 0.8025, "y": 0.59}, {"type": "position", "time": 17301, "x": 0.8025, "y": 0.59}, {"type": "position", "time": 17339, "x": 0.8025, "y": 0.59}, {"type": "position", "time": 17390, "x": 0.8025, "y": 0.59}, {"type": "position", "time": 17441, "x": 0.8025, "y": 0.59}, {"type": "position", "time": 17490, "x": 0.8025, "y": 0.59}, {"type": "position", "time": 17539, "x": 0.8025, "y": 0.59}, {"type": "position", "time": 17594, "x": 0.8025, "y": 0.59}, {"type": "position", "time": 17640, "x": 0.8025, "y": 0.59}, {"type": "position", "time": 17692, "x": 0.8025, "y": 0.59}, {"type": "position", "time": 17750, "x": 0.8025, "y": 0.59}, {"type": "position", "time": 17789, "x": 0.8025, "y": 0.59}, {"type": "position", "time": 17840, "x": 0.8025, "y": 0.59}, {"type": "position", "time": 17889, "x": 0.8025, "y": 0.59}, {"type": "position", "time": 17938, "x": 0.8025, "y": 0.59}, {"type": "position", "time": 17991, "x": 0.8025, "y": 0.59}, {"type": "position", "time": 18039, "x": 0.8025, "y": 0.59}, {"type": "position", "time": 18092, "x": 0.8025, "y": 0.59}, {"type": "position", "time": 18138, "x": 0.8025, "y": 0.59}, {"type": "position", "time": 18191, "x": 0.8025, "y": 0.59}, {"type": "position", "time": 18238, "x": 0.8025, "y": 0.59}, {"type": "position", "time": 18289, "x": 0.8025, "y": 0.59}, {"type": "position", "time": 18340, "x": 0.8025, "y": 0.59}, {"type": "position", "time": 18388, "x": 0.8025, "y": 0.5966666666666667}, {"type": "position", "time": 18449, "x": 0.80375, "y": 0.5966666666666667}, {"type": "position", "time": 18499, "x": 0.8225, "y": 0.5733333333333334}, {"type": "position", "time": 18539, "x": 0.8325, "y": 0.565}, {"type": "position", "time": 18587, "x": 0.835, "y": 0.5616666666666666}, {"type": "position", "time": 18648, "x": 0.835, "y": 0.5616666666666666}, {"type": "position", "time": 18694, "x": 0.83625, "y": 0.5616666666666666}, {"type": "position", "time": 18738, "x": 0.83625, "y": 0.56}, {"type": "position", "time": 18788, "x": 0.83375, "y": 0.5566666666666666}, {"type": "position", "time": 18839, "x": 0.8275, "y": 0.5533333333333333}, {"type": "position", "time": 18891, "x": 0.825, "y": 0.55}, {"type": "position", "time": 18938, "x": 0.8225, "y": 0.545}, {"type": "position", "time": 18989, "x": 0.8225, "y": 0.5433333333333333}, {"type": "position", "time": 19040, "x": 0.82125, "y": 0.5433333333333333}, {"type": "position", "time": 19090, "x": 0.82125, "y": 0.5433333333333333}, {"type": "position", "time": 19139, "x": 0.82125, "y": 0.5433333333333333}, {"type": "position", "time": 19190, "x": 0.82125, "y": 0.5433333333333333}, {"type": "position", "time": 19239, "x": 0.82125, "y": 0.5433333333333333}, {"type": "click", "time": 19251, "x": 0.82125, "y": 0.5433333333333333}, {"type": "position", "time": 19290, "x": 0.82125, "y": 0.5433333333333333}, {"type": "position", "time": 19339, "x": 0.82125, "y": 0.5433333333333333}, {"type": "position", "time": 19390, "x": 0.82125, "y": 0.5433333333333333}, {"type": "position", "time": 19439, "x": 0.82125, "y": 0.5433333333333333}, {"type": "position", "time": 19536, "x": 0.82125, "y": 0.5433333333333333}, {"type": "position", "time": 19538, "x": 0.82125, "y": 0.5433333333333333}, {"type": "position", "time": 19589, "x": 0.82125, "y": 0.5433333333333333}, {"type": "position", "time": 19639, "x": 0.82125, "y": 0.5433333333333333}, {"type": "position", "time": 19689, "x": 0.82125, "y": 0.5433333333333333}, {"type": "position", "time": 19740, "x": 0.82125, "y": 0.5433333333333333}, {"type": "position", "time": 19789, "x": 0.82125, "y": 0.5433333333333333}, {"type": "position", "time": 19840, "x": 0.82125, "y": 0.5433333333333333}, {"type": "position", "time": 19888, "x": 0.82125, "y": 0.5433333333333333}, {"type": "position", "time": 19937, "x": 0.82125, "y": 0.5433333333333333}, {"type": "position", "time": 19990, "x": 0.82125, "y": 0.5433333333333333}, {"type": "position", "time": 20043, "x": 0.82125, "y": 0.5433333333333333}, {"type": "position", "time": 20088, "x": 0.82125, "y": 0.5433333333333333}, {"type": "position", "time": 20139, "x": 0.82125, "y": 0.5433333333333333}, {"type": "position", "time": 20188, "x": 0.82125, "y": 0.5433333333333333}, {"type": "position", "time": 20240, "x": 0.82125, "y": 0.5433333333333333}, {"type": "position", "time": 20288, "x": 0.82125, "y": 0.5433333333333333}, {"type": "position", "time": 20339, "x": 0.82125, "y": 0.5433333333333333}, {"type": "position", "time": 20392, "x": 0.82125, "y": 0.5433333333333333}, {"type": "position", "time": 20441, "x": 0.82125, "y": 0.5433333333333333}, {"type": "position", "time": 20490, "x": 0.82125, "y": 0.5433333333333333}, {"type": "position", "time": 20538, "x": 0.82125, "y": 0.5433333333333333}, {"type": "position", "time": 20592, "x": 0.82125, "y": 0.5433333333333333}, {"type": "position", "time": 20638, "x": 0.82125, "y": 0.5433333333333333}, {"type": "position", "time": 20691, "x": 0.82125, "y": 0.5433333333333333}, {"type": "position", "time": 20739, "x": 0.82125, "y": 0.5433333333333333}, {"type": "position", "time": 20792, "x": 0.82125, "y": 0.5433333333333333}, {"type": "position", "time": 20922, "x": 0.82125, "y": 0.5433333333333333}, {"type": "position", "time": 20924, "x": 0.82125, "y": 0.5433333333333333}, {"type": "position", "time": 20974, "x": 0.82125, "y": 0.5433333333333333}, {"type": "position", "time": 21022, "x": 0.82125, "y": 0.5433333333333333}, {"type": "keyup", "time": 21069, "key": "H", "keyCode": 72}, {"type": "position", "time": 21074, "x": 0.82125, "y": 0.5433333333333333}, {"type": "position", "time": 21122, "x": 0.82125, "y": 0.5433333333333333}, {"type": "keyup", "time": 21151, "key": "E", "keyCode": 69}, {"type": "position", "time": 21174, "x": 0.82125, "y": 0.5433333333333333}, {"type": "position", "time": 21222, "x": 0.82125, "y": 0.5433333333333333}, {"type": "position", "time": 21273, "x": 0.82125, "y": 0.5433333333333333}, {"type": "keyup", "time": 21309, "key": " ", "keyCode": 32}, {"type": "position", "time": 21323, "x": 0.82125, "y": 0.5433333333333333}, {"type": "position", "time": 21372, "x": 0.82125, "y": 0.5433333333333333}, {"type": "keyup", "time": 21397, "key": "W", "keyCode": 87}, {"type": "position", "time": 21422, "x": 0.82125, "y": 0.5433333333333333}, {"type": "position", "time": 21473, "x": 0.82125, "y": 0.5433333333333333}, {"type": "position", "time": 21522, "x": 0.82125, "y": 0.5433333333333333}, {"type": "position", "time": 21572, "x": 0.82125, "y": 0.5433333333333333}, {"type": "position", "time": 21622, "x": 0.82125, "y": 0.5433333333333333}, {"type": "keyup", "time": 21796, "key": "S", "keyCode": 83}, {"type": "position", "time": 21799, "x": 0.82125, "y": 0.5433333333333333}, {"type": "position", "time": 21807, "x": 0.82125, "y": 0.5433333333333333}, {"type": "position", "time": 21851, "x": 0.82125, "y": 0.5433333333333333}, {"type": "keyup", "time": 21860, "key": " ", "keyCode": 32}, {"type": "position", "time": 21898, "x": 0.82125, "y": 0.5433333333333333}, {"type": "position", "time": 21953, "x": 0.82125, "y": 0.5433333333333333}, {"type": "position", "time": 21999, "x": 0.82125, "y": 0.5433333333333333}, {"type": "position", "time": 22050, "x": 0.82125, "y": 0.5433333333333333}, {"type": "position", "time": 22100, "x": 0.82125, "y": 0.5433333333333333}, {"type": "position", "time": 22150, "x": 0.82125, "y": 0.5433333333333333}, {"type": "position", "time": 22199, "x": 0.82125, "y": 0.5433333333333333}, {"type": "position", "time": 22250, "x": 0.82125, "y": 0.5433333333333333}, {"type": "position", "time": 22299, "x": 0.82125, "y": 0.5433333333333333}, {"type": "keyup", "time": 22434, "key": "\b", "keyCode": 8}, {"type": "position", "time": 22436, "x": 0.82125, "y": 0.5433333333333333}, {"type": "position", "time": 22471, "x": 0.82125, "y": 0.5433333333333333}, {"type": "position", "time": 22487, "x": 0.82125, "y": 0.5433333333333333}, {"type": "position", "time": 22552, "x": 0.82125, "y": 0.5433333333333333}, {"type": "keyup", "time": 22612, "key": "\b", "keyCode": 8}, {"type": "position", "time": 22613, "x": 0.82125, "y": 0.5433333333333333}, {"type": "position", "time": 22636, "x": 0.82125, "y": 0.5433333333333333}, {"type": "position", "time": 22688, "x": 0.82125, "y": 0.5433333333333333}, {"type": "keyup", "time": 22689, "key": "A", "keyCode": 65}, {"type": "position", "time": 22755, "x": 0.82125, "y": 0.5433333333333333}, {"type": "position", "time": 22786, "x": 0.82125, "y": 0.5433333333333333}, {"type": "position", "time": 22858, "x": 0.82125, "y": 0.5433333333333333}, {"type": "keyup", "time": 22882, "key": "S", "keyCode": 83}, {"type": "position", "time": 22887, "x": 0.82125, "y": 0.5433333333333333}, {"type": "position", "time": 22937, "x": 0.82125, "y": 0.5433333333333333}, {"type": "keyup", "time": 22941, "key": " ", "keyCode": 32}, {"type": "position", "time": 23026, "x": 0.82125, "y": 0.5433333333333333}, {"type": "position", "time": 23036, "x": 0.82125, "y": 0.5433333333333333}, {"type": "keyup", "time": 23077, "key": "T", "keyCode": 84}, {"type": "position", "time": 23191, "x": 0.82125, "y": 0.5433333333333333}, {"type": "keyup", "time": 23215, "key": "O", "keyCode": 79}, {"type": "position", "time": 23217, "x": 0.82125, "y": 0.5433333333333333}, {"type": "position", "time": 23243, "x": 0.82125, "y": 0.5433333333333333}, {"type": "position", "time": 23291, "x": 0.82125, "y": 0.5433333333333333}, {"type": "position", "time": 23341, "x": 0.82125, "y": 0.5433333333333333}, {"type": "position", "time": 23392, "x": 0.82125, "y": 0.5433333333333333}, {"type": "keyup", "time": 23396, "key": "O", "keyCode": 79}, {"type": "position", "time": 23443, "x": 0.82125, "y": 0.5433333333333333}, {"type": "keyup", "time": 23487, "key": " ", "keyCode": 32}, {"type": "position", "time": 23491, "x": 0.82125, "y": 0.5433333333333333}, {"type": "keyup", "time": 23517, "key": "F", "keyCode": 70}, {"type": "position", "time": 23541, "x": 0.82125, "y": 0.5433333333333333}, {"type": "position", "time": 23628, "x": 0.82125, "y": 0.5433333333333333}, {"type": "position", "time": 23643, "x": 0.82125, "y": 0.5433333333333333}, {"type": "keyup", "time": 23689, "key": "O", "keyCode": 79}, {"type": "position", "time": 23691, "x": 0.82125, "y": 0.5433333333333333}, {"type": "keyup", "time": 23740, "key": "C", "keyCode": 67}, {"type": "position", "time": 23742, "x": 0.82125, "y": 0.5433333333333333}, {"type": "position", "time": 23824, "x": 0.82125, "y": 0.5433333333333333}, {"type": "position", "time": 23841, "x": 0.82125, "y": 0.5433333333333333}, {"type": "position", "time": 23891, "x": 0.82125, "y": 0.5433333333333333}, {"type": "keyup", "time": 23900, "key": "U", "keyCode": 85}, {"type": "position", "time": 24013, "x": 0.82125, "y": 0.5433333333333333}, {"type": "position", "time": 24014, "x": 0.82125, "y": 0.5433333333333333}, {"type": "keyup", "time": 24015, "key": "S", "keyCode": 83}, {"type": "position", "time": 24063, "x": 0.82125, "y": 0.5433333333333333}, {"type": "position", "time": 24115, "x": 0.82125, "y": 0.5433333333333333}, {"type": "keyup", "time": 24157, "key": "E", "keyCode": 69}, {"type": "position", "time": 24162, "x": 0.82125, "y": 0.5433333333333333}, {"type": "position", "time": 24213, "x": 0.82125, "y": 0.5433333333333333}, {"type": "position", "time": 24268, "x": 0.82125, "y": 0.5433333333333333}, {"type": "position", "time": 24316, "x": 0.82125, "y": 0.5433333333333333}, {"type": "keyup", "time": 24356, "key": "D", "keyCode": 68}, {"type": "position", "time": 24364, "x": 0.82125, "y": 0.5433333333333333}, {"type": "position", "time": 24413, "x": 0.82125, "y": 0.5433333333333333}, {"type": "keyup", "time": 24420, "key": " ", "keyCode": 32}, {"type": "position", "time": 24467, "x": 0.82125, "y": 0.5433333333333333}, {"type": "position", "time": 24516, "x": 0.82125, "y": 0.5433333333333333}, {"type": "keyup", "time": 24517, "key": "O", "keyCode": 79}, {"type": "position", "time": 24563, "x": 0.82125, "y": 0.5433333333333333}, {"type": "position", "time": 24614, "x": 0.82125, "y": 0.5433333333333333}, {"type": "position", "time": 24663, "x": 0.82125, "y": 0.5433333333333333}, {"type": "keyup", "time": 24692, "key": "N", "keyCode": 78}, {"type": "position", "time": 24716, "x": 0.82125, "y": 0.5433333333333333}, {"type": "keyup", "time": 24809, "key": " ", "keyCode": 32}, {"type": "position", "time": 24815, "x": 0.82125, "y": 0.5433333333333333}, {"type": "position", "time": 24816, "x": 0.82125, "y": 0.5433333333333333}, {"type": "keyup", "time": 24817, "key": "S", "keyCode": 83}, {"type": "position", "time": 24866, "x": 0.82125, "y": 0.5433333333333333}, {"type": "position", "time": 24917, "x": 0.82125, "y": 0.5433333333333333}, {"type": "keyup", "time": 25006, "key": "O", "keyCode": 79}, {"type": "position", "time": 25006, "x": 0.82125, "y": 0.5433333333333333}, {"type": "position", "time": 25017, "x": 0.82125, "y": 0.5433333333333333}, {"type": "keyup", "time": 25044, "key": "C", "keyCode": 67}, {"type": "position", "time": 25065, "x": 0.82125, "y": 0.5433333333333333}, {"type": "position", "time": 25115, "x": 0.82125, "y": 0.5433333333333333}, {"type": "position", "time": 25167, "x": 0.82125, "y": 0.5433333333333333}, {"type": "keyup", "time": 25213, "key": "I", "keyCode": 73}, {"type": "position", "time": 25215, "x": 0.82125, "y": 0.5433333333333333}, {"type": "position", "time": 25265, "x": 0.82125, "y": 0.5433333333333333}, {"type": "keyup", "time": 25285, "key": "A", "keyCode": 65}, {"type": "position", "time": 25317, "x": 0.82125, "y": 0.5433333333333333}, {"type": "position", "time": 25369, "x": 0.82125, "y": 0.5433333333333333}, {"type": "position", "time": 25415, "x": 0.82125, "y": 0.5433333333333333}, {"type": "keyup", "time": 25444, "key": "L", "keyCode": 76}, {"type": "position", "time": 25541, "x": 0.82125, "y": 0.5433333333333333}, {"type": "position", "time": 25542, "x": 0.82125, "y": 0.5433333333333333}, {"type": "position", "time": 25591, "x": 0.82125, "y": 0.5433333333333333}, {"type": "position", "time": 25641, "x": 0.82125, "y": 0.5433333333333333}, {"type": "keyup", "time": 25676, "key": "I", "keyCode": 73}, {"type": "position", "time": 25695, "x": 0.82125, "y": 0.5433333333333333}, {"type": "position", "time": 25741, "x": 0.82125, "y": 0.5433333333333333}, {"type": "position", "time": 25913, "x": 0.82125, "y": 0.5433333333333333}, {"type": "position", "time": 25920, "x": 0.82125, "y": 0.5433333333333333}, {"type": "keyup", "time": 25948, "key": "Z", "keyCode": 90}, {"type": "position", "time": 25964, "x": 0.82125, "y": 0.5433333333333333}, {"type": "position", "time": 26014, "x": 0.82125, "y": 0.5433333333333333}, {"type": "position", "time": 26063, "x": 0.82125, "y": 0.5433333333333333}, {"type": "position", "time": 26115, "x": 0.82125, "y": 0.5433333333333333}, {"type": "position", "time": 26164, "x": 0.82125, "y": 0.5433333333333333}, {"type": "position", "time": 26216, "x": 0.82125, "y": 0.5433333333333333}, {"type": "keyup", "time": 26236, "key": "I", "keyCode": 73}, {"type": "position", "time": 26264, "x": 0.82125, "y": 0.5433333333333333}, {"type": "position", "time": 26314, "x": 0.82125, "y": 0.5433333333333333}, {"type": "position", "time": 26364, "x": 0.82125, "y": 0.5433333333333333}, {"type": "keyup", "time": 26373, "key": "N", "keyCode": 78}, {"type": "position", "time": 26413, "x": 0.82125, "y": 0.5433333333333333}, {"type": "position", "time": 26463, "x": 0.82125, "y": 0.5433333333333333}, {"type": "keyup", "time": 26468, "key": "G", "keyCode": 71}, {"type": "position", "time": 26515, "x": 0.82125, "y": 0.5433333333333333}, {"type": "position", "time": 26563, "x": 0.82125, "y": 0.5433333333333333}, {"type": "position", "time": 26613, "x": 0.82125, "y": 0.5433333333333333}, {"type": "position", "time": 26664, "x": 0.82125, "y": 0.5433333333333333}, {"type": "position", "time": 26713, "x": 0.82125, "y": 0.5433333333333333}, {"type": "position", "time": 26763, "x": 0.82125, "y": 0.5433333333333333}, {"type": "position", "time": 26819, "x": 0.82125, "y": 0.5433333333333333}, {"type": "position", "time": 26865, "x": 0.82125, "y": 0.5616666666666666}, {"type": "position", "time": 26915, "x": 0.82125, "y": 0.575}, {"type": "position", "time": 26966, "x": 0.82125, "y": 0.6116666666666667}, {"type": "position", "time": 27018, "x": 0.82125, "y": 0.6366666666666667}, {"type": "position", "time": 27064, "x": 0.82125, "y": 0.6416666666666667}, {"type": "position", "time": 27114, "x": 0.8175, "y": 0.6433333333333333}, {"type": "position", "time": 27163, "x": 0.80625, "y": 0.6433333333333333}, {"type": "position", "time": 27213, "x": 0.78875, "y": 0.6433333333333333}, {"type": "position", "time": 27263, "x": 0.775, "y": 0.645}, {"type": "position", "time": 27312, "x": 0.775, "y": 0.645}, {"type": "position", "time": 27363, "x": 0.775, "y": 0.645}, {"type": "position", "time": 27416, "x": 0.775, "y": 0.645}, {"type": "position", "time": 27464, "x": 0.775, "y": 0.645}, {"type": "click", "time": 27563, "x": 0.775, "y": 0.645}, {"type": "position", "time": 27569, "x": 0.775, "y": 0.645}, {"type": "position", "time": 27572, "x": 0.775, "y": 0.645}, {"type": "position", "time": 27618, "x": 0.775, "y": 0.645}, {"type": "position", "time": 27670, "x": 0.775, "y": 0.645}, {"type": "position", "time": 27723, "x": 0.775, "y": 0.645}, {"type": "position", "time": 27769, "x": 0.77375, "y": 0.6166666666666667}, {"type": "position", "time": 27818, "x": 0.77125, "y": 0.5783333333333334}, {"type": "position", "time": 27869, "x": 0.77125, "y": 0.555}, {"type": "position", "time": 27919, "x": 0.775, "y": 0.535}, {"type": "position", "time": 27970, "x": 0.78125, "y": 0.525}, {"type": "position", "time": 28023, "x": 0.78375, "y": 0.525}, {"type": "position", "time": 28069, "x": 0.78375, "y": 0.5316666666666666}, {"type": "position", "time": 28119, "x": 0.785, "y": 0.5533333333333333}, {"type": "position", "time": 28171, "x": 0.785, "y": 0.5983333333333334}, {"type": "position", "time": 28222, "x": 0.7825, "y": 0.645}, {"type": "position", "time": 28272, "x": 0.7825, "y": 0.6616666666666666}, {"type": "position", "time": 28321, "x": 0.78125, "y": 0.6633333333333333}, {"type": "position", "time": 28371, "x": 0.78, "y": 0.6716666666666666}, {"type": "position", "time": 28421, "x": 0.7775, "y": 0.69}, {"type": "position", "time": 28472, "x": 0.775, "y": 0.6966666666666667}, {"type": "position", "time": 28521, "x": 0.775, "y": 0.7}, {"type": "position", "time": 28570, "x": 0.775, "y": 0.7016666666666667}, {"type": "position", "time": 28619, "x": 0.775, "y": 0.7016666666666667}, {"type": "position", "time": 28668, "x": 0.775, "y": 0.7016666666666667}, {"type": "position", "time": 28721, "x": 0.775, "y": 0.7016666666666667}, {"type": "position", "time": 28771, "x": 0.775, "y": 0.7016666666666667}, {"type": "position", "time": 28819, "x": 0.775, "y": 0.7016666666666667}, {"type": "position", "time": 28872, "x": 0.775, "y": 0.7016666666666667}, {"type": "position", "time": 28923, "x": 0.775, "y": 0.7016666666666667}, {"type": "position", "time": 28970, "x": 0.775, "y": 0.7016666666666667}, {"type": "position", "time": 29019, "x": 0.775, "y": 0.7016666666666667}, {"type": "position", "time": 29070, "x": 0.775, "y": 0.7016666666666667}, {"type": "position", "time": 29122, "x": 0.775, "y": 0.7016666666666667}, {"type": "position", "time": 29169, "x": 0.81125, "y": 0.6966666666666667}, {"type": "position", "time": 29223, "x": 0.905, "y": 0.6916666666666667}, {"type": "position", "time": 29271, "x": 0.9475, "y": 0.6933333333333334}, {"type": "position", "time": 29322, "x": 0.95, "y": 0.6933333333333334}, {"type": "position", "time": 29370, "x": 0.95, "y": 0.6933333333333334}, {"type": "position", "time": 29419, "x": 0.95, "y": 0.6933333333333334}, {"type": "position", "time": 29468, "x": 0.95, "y": 0.6933333333333334}, {"type": "position", "time": 29522, "x": 0.95, "y": 0.6933333333333334}, {"type": "position", "time": 29569, "x": 0.95, "y": 0.6933333333333334}, {"type": "position", "time": 29621, "x": 0.95, "y": 0.6933333333333334}, {"type": "position", "time": 29721, "x": 0.95, "y": 0.6933333333333334}, {"type": "position", "time": 29721, "x": 0.95, "y": 0.6933333333333334}, {"type": "slider", "time": 29730, "value": 0.79}, {"type": "position", "time": 29798, "x": 0.95, "y": 0.6933333333333334}, {"type": "position", "time": 29821, "x": 0.95, "y": 0.6933333333333334}, {"type": "position", "time": 29871, "x": 0.95, "y": 0.6933333333333334}, {"type": "position", "time": 29944, "x": 0.95, "y": 0.6933333333333334}, {"type": "position", "time": 29971, "x": 0.95, "y": 0.6933333333333334}, {"type": "position", "time": 30021, "x": 0.95, "y": 0.6933333333333334}, {"type": "position", "time": 30098, "x": 0.9, "y": 0.7133333333333334}, {"type": "position", "time": 30150, "x": 0.805, "y": 0.7416666666666667}, {"type": "position", "time": 30189, "x": 0.7875, "y": 0.7533333333333333}, {"type": "position", "time": 30252, "x": 0.77875, "y": 0.7616666666666667}, {"type": "position", "time": 30291, "x": 0.77875, "y": 0.765}, {"type": "position", "time": 30327, "x": 0.77875, "y": 0.765}, {"type": "position", "time": 30372, "x": 0.7775, "y": 0.765}, {"type": "position", "time": 30459, "x": 0.77375, "y": 0.7683333333333333}, {"type": "position", "time": 30479, "x": 0.77375, "y": 0.7683333333333333}, {"type": "position", "time": 30520, "x": 0.77375, "y": 0.7683333333333333}, {"type": "position", "time": 30670, "x": 0.77375, "y": 0.7683333333333333}, {"type": "position", "time": 30676, "x": 0.77375, "y": 0.7683333333333333}, {"type": "position", "time": 30721, "x": 0.77375, "y": 0.7716666666666666}, {"type": "position", "time": 30772, "x": 0.77375, "y": 0.785}, {"type": "position", "time": 30819, "x": 0.775, "y": 0.79}, {"type": "position", "time": 30873, "x": 0.775, "y": 0.79}, {"type": "position", "time": 30920, "x": 0.775, "y": 0.79}, {"type": "position", "time": 30971, "x": 0.775, "y": 0.79}, {"type": "position", "time": 31021, "x": 0.775, "y": 0.79}, {"type": "position", "time": 31069, "x": 0.775, "y": 0.79}, {"type": "click", "time": 31116, "x": 0.775, "y": 0.79}, {"type": "position", "time": 31123, "x": 0.775, "y": 0.79}, {"type": "position", "time": 31171, "x": 0.775, "y": 0.79}, {"type": "position", "time": 31220, "x": 0.775, "y": 0.79}, {"type": "position", "time": 31275, "x": 0.775, "y": 0.79}, {"type": "position", "time": 31320, "x": 0.775, "y": 0.79}, {"type": "position", "time": 31370, "x": 0.775, "y": 0.79}, {"type": "position", "time": 31421, "x": 0.775, "y": 0.79}, {"type": "position", "time": 31498, "x": 0.775, "y": 0.7716666666666666}, {"type": "position", "time": 31522, "x": 0.7775, "y": 0.6983333333333334}, {"type": "position", "time": 31573, "x": 0.8025, "y": 0.5916666666666667}, {"type": "position", "time": 31625, "x": 0.81375, "y": 0.5633333333333334}, {"type": "position", "time": 31671, "x": 0.815, "y": 0.5616666666666666}, {"type": "position", "time": 31786, "x": 0.815, "y": 0.5616666666666666}, {"type": "position", "time": 31796, "x": 0.815, "y": 0.5616666666666666}, {"type": "position", "time": 31839, "x": 0.815, "y": 0.5616666666666666}, {"type": "position", "time": 31886, "x": 0.815, "y": 0.5616666666666666}, {"type": "position", "time": 31937, "x": 0.815, "y": 0.5616666666666666}, {"type": "position", "time": 31986, "x": 0.815, "y": 0.5616666666666666}, {"type": "position", "time": 32036, "x": 0.815, "y": 0.5616666666666666}, {"type": "position", "time": 32088, "x": 0.815, "y": 0.5616666666666666}, {"type": "position", "time": 32135, "x": 0.815, "y": 0.5616666666666666}, {"type": "position", "time": 32187, "x": 0.815, "y": 0.5616666666666666}, {"type": "position", "time": 32239, "x": 0.815, "y": 0.5616666666666666}, {"type": "position", "time": 32291, "x": 0.815, "y": 0.5616666666666666}, {"type": "position", "time": 32337, "x": 0.815, "y": 0.5616666666666666}, {"type": "position", "time": 32426, "x": 0.815, "y": 0.5616666666666666}, {"type": "position", "time": 32437, "x": 0.815, "y": 0.5616666666666666}, {"type": "position", "time": 32486, "x": 0.815, "y": 0.5616666666666666}, {"type": "position", "time": 32583, "x": 0.815, "y": 0.5616666666666666}, {"type": "position", "time": 32593, "x": 0.815, "y": 0.5616666666666666}, {"type": "position", "time": 32638, "x": 0.815, "y": 0.5616666666666666}, {"type": "position", "time": 32687, "x": 0.815, "y": 0.5616666666666666}, {"type": "position", "time": 32736, "x": 0.815, "y": 0.5616666666666666}, {"type": "position", "time": 32789, "x": 0.815, "y": 0.5616666666666666}, {"type": "position", "time": 32837, "x": 0.815, "y": 0.5616666666666666}, {"type": "position", "time": 32891, "x": 0.815, "y": 0.5616666666666666}, {"type": "position", "time": 32936, "x": 0.815, "y": 0.5616666666666666}, {"type": "position", "time": 32989, "x": 0.815, "y": 0.5616666666666666}, {"type": "position", "time": 33036, "x": 0.815, "y": 0.5616666666666666}, {"type": "position", "time": 33090, "x": 0.815, "y": 0.5616666666666666}, {"type": "position", "time": 33136, "x": 0.815, "y": 0.5616666666666666}, {"type": "position", "time": 33188, "x": 0.815, "y": 0.5616666666666666}, {"type": "position", "time": 33240, "x": 0.82, "y": 0.5616666666666666}, {"type": "position", "time": 33291, "x": 0.855, "y": 0.565}, {"type": "position", "time": 33341, "x": 0.8975, "y": 0.5783333333333334}, {"type": "position", "time": 33455, "x": 0.9175, "y": 0.595}, {"type": "position", "time": 33480, "x": 0.9175, "y": 0.595}, {"type": "position", "time": 33505, "x": 0.91875, "y": 0.595}, {"type": "position", "time": 33555, "x": 0.92, "y": 0.595}, {"type": "position", "time": 33608, "x": 0.925, "y": 0.585}, {"type": "position", "time": 33660, "x": 0.93125, "y": 0.5766666666666667}, {"type": "position", "time": 33705, "x": 0.9325, "y": 0.5766666666666667}, {"type": "position", "time": 33755, "x": 0.9325, "y": 0.575}, {"type": "position", "time": 33806, "x": 0.9325, "y": 0.575}, {"type": "position", "time": 33855, "x": 0.9325, "y": 0.575}, {"type": "position", "time": 33905, "x": 0.9325, "y": 0.575}, {"type": "position", "time": 33954, "x": 0.9325, "y": 0.575}, {"type": "position", "time": 34005, "x": 0.9325, "y": 0.575}, {"type": "position", "time": 34054, "x": 0.9325, "y": 0.575}, {"type": "position", "time": 34105, "x": 0.9325, "y": 0.575}, {"type": "position", "time": 34154, "x": 0.9325, "y": 0.575}, {"type": "position", "time": 34207, "x": 0.9325, "y": 0.575}, {"type": "position", "time": 34255, "x": 0.9325, "y": 0.575}, {"type": "position", "time": 34383, "x": 0.9325, "y": 0.575}, {"type": "position", "time": 34388, "x": 0.9325, "y": 0.575}, {"type": "position", "time": 34433, "x": 0.9325, "y": 0.575}, {"type": "position", "time": 34484, "x": 0.9325, "y": 0.575}, {"type": "position", "time": 34536, "x": 0.9325, "y": 0.575}, {"type": "position", "time": 34584, "x": 0.9325, "y": 0.575}, {"type": "position", "time": 34634, "x": 0.9325, "y": 0.575}, {"type": "position", "time": 34684, "x": 0.9325, "y": 0.575}, {"type": "position", "time": 34736, "x": 0.9325, "y": 0.575}, {"type": "position", "time": 34785, "x": 0.9325, "y": 0.575}, {"type": "position", "time": 34834, "x": 0.9325, "y": 0.575}, {"type": "position", "time": 34886, "x": 0.9325, "y": 0.575}, {"type": "position", "time": 34934, "x": 0.9325, "y": 0.575}, {"type": "position", "time": 34985, "x": 0.9325, "y": 0.575}, {"type": "position", "time": 35035, "x": 0.9325, "y": 0.575}, {"type": "position", "time": 35083, "x": 0.9325, "y": 0.575}, {"type": "position", "time": 35245, "x": 0.9325, "y": 0.575}, {"type": "position", "time": 35251, "x": 0.9325, "y": 0.575}, {"type": "position", "time": 35296, "x": 0.9325, "y": 0.575}, {"type": "position", "time": 35347, "x": 0.9325, "y": 0.575}, {"type": "position", "time": 35397, "x": 0.9325, "y": 0.575}, {"type": "position", "time": 35446, "x": 0.9325, "y": 0.575}, {"type": "position", "time": 35497, "x": 0.9325, "y": 0.575}, {"type": "position", "time": 35546, "x": 0.9325, "y": 0.575}, {"type": "position", "time": 35594, "x": 0.9325, "y": 0.575}, {"type": "position", "time": 35646, "x": 0.9325, "y": 0.575}, {"type": "position", "time": 35695, "x": 0.9325, "y": 0.575}, {"type": "position", "time": 35745, "x": 0.9325, "y": 0.575}, {"type": "position", "time": 35798, "x": 0.9325, "y": 0.575}, {"type": "position", "time": 35846, "x": 0.9325, "y": 0.575}, {"type": "position", "time": 35894, "x": 0.9325, "y": 0.575}, {"type": "position", "time": 35945, "x": 0.9325, "y": 0.575}, {"type": "position", "time": 35996, "x": 0.9325, "y": 0.575}, {"type": "position", "time": 36091, "x": 0.9325, "y": 0.575}, {"type": "position", "time": 36095, "x": 0.9325, "y": 0.575}, {"type": "position", "time": 36147, "x": 0.9325, "y": 0.575}, {"type": "position", "time": 36196, "x": 0.9325, "y": 0.575}, {"type": "position", "time": 36244, "x": 0.9325, "y": 0.575}, {"type": "position", "time": 36296, "x": 0.9325, "y": 0.575}, {"type": "position", "time": 36346, "x": 0.9325, "y": 0.575}, {"type": "position", "time": 36399, "x": 0.93125, "y": 0.575}, {"type": "position", "time": 36444, "x": 0.925, "y": 0.58}, {"type": "position", "time": 36496, "x": 0.91, "y": 0.5883333333333334}, {"type": "position", "time": 36544, "x": 0.88, "y": 0.6016666666666667}, {"type": "position", "time": 36630, "x": 0.80625, "y": 0.6066666666666667}, {"type": "position", "time": 36647, "x": 0.78625, "y": 0.6033333333333334}, {"type": "position", "time": 36712, "x": 0.7275, "y": 0.6016666666666667}, {"type": "position", "time": 36750, "x": 0.71875, "y": 0.6016666666666667}, {"type": "position", "time": 36795, "x": 0.7175, "y": 0.6016666666666667}, {"type": "position", "time": 36987, "x": 0.7175, "y": 0.6016666666666667}, {"type": "position", "time": 37002, "x": 0.7175, "y": 0.6016666666666667}, {"type": "position", "time": 37038, "x": 0.7175, "y": 0.6016666666666667}, {"type": "position", "time": 37088, "x": 0.7175, "y": 0.6016666666666667}, {"type": "position", "time": 37142, "x": 0.7175, "y": 0.6016666666666667}, {"type": "position", "time": 37188, "x": 0.7175, "y": 0.6016666666666667}, {"type": "position", "time": 37349, "x": 0.7175, "y": 0.6016666666666667}, {"type": "position", "time": 37394, "x": 0.7175, "y": 0.6016666666666667}, {"type": "position", "time": 37403, "x": 0.6875, "y": 0.6016666666666667}, {"type": "position", "time": 37466, "x": 0.69875, "y": 0.6}, {"type": "position", "time": 37513, "x": 0.71625, "y": 0.5966666666666667}, {"type": "position", "time": 37558, "x": 0.7225, "y": 0.595}, {"type": "position", "time": 37601, "x": 0.72375, "y": 0.595}, {"type": "position", "time": 37702, "x": 0.73375, "y": 0.5883333333333334}, {"type": "position", "time": 37732, "x": 0.7425, "y": 0.5833333333333334}, {"type": "position", "time": 37774, "x": 0.74625, "y": 0.5816666666666667}, {"type": "position", "time": 37837, "x": 0.75125, "y": 0.58}, {"type": "position", "time": 37852, "x": 0.755, "y": 0.58}, {"type": "position", "time": 37904, "x": 0.76375, "y": 0.5783333333333334}, {"type": "position", "time": 37954, "x": 0.765, "y": 0.5783333333333334}, {"type": "position", "time": 38006, "x": 0.76625, "y": 0.5783333333333334}, {"type": "position", "time": 38053, "x": 0.76625, "y": 0.5783333333333334}, {"type": "position", "time": 38103, "x": 0.76625, "y": 0.5783333333333334}, {"type": "position", "time": 38152, "x": 0.76625, "y": 0.5783333333333334}, {"type": "position", "time": 38202, "x": 0.76625, "y": 0.5783333333333334}, {"type": "position", "time": 38252, "x": 0.76625, "y": 0.5783333333333334}, {"type": "position", "time": 38306, "x": 0.77125, "y": 0.5916666666666667}, {"type": "position", "time": 38353, "x": 0.775, "y": 0.5966666666666667}, {"type": "position", "time": 38406, "x": 0.77625, "y": 0.5983333333333334}, {"type": "position", "time": 38456, "x": 0.77625, "y": 0.5983333333333334}, {"type": "position", "time": 38503, "x": 0.77625, "y": 0.5983333333333334}, {"type": "slider", "time": 38535, "value": 0.51}, {"type": "position", "time": 38632, "x": 0.77625, "y": 0.5983333333333334}, {"type": "position", "time": 38632, "x": 0.77625, "y": 0.5983333333333334}, {"type": "position", "time": 38682, "x": 0.77625, "y": 0.5983333333333334}, {"type": "position", "time": 38733, "x": 0.77625, "y": 0.5983333333333334}, {"type": "position", "time": 38781, "x": 0.77625, "y": 0.5983333333333334}, {"type": "position", "time": 38832, "x": 0.785, "y": 0.5983333333333334}, {"type": "position", "time": 38887, "x": 0.825, "y": 0.5983333333333334}, {"type": "position", "time": 38932, "x": 0.84375, "y": 0.6016666666666667}, {"type": "position", "time": 38982, "x": 0.84375, "y": 0.6016666666666667}, {"type": "slider", "time": 38989, "value": 0.62}, {"type": "position", "time": 39033, "x": 0.84375, "y": 0.6016666666666667}, {"type": "position", "time": 39083, "x": 0.84375, "y": 0.6016666666666667}, {"type": "position", "time": 39132, "x": 0.84375, "y": 0.6016666666666667}, {"type": "position", "time": 39181, "x": 0.84375, "y": 0.6016666666666667}, {"type": "position", "time": 39233, "x": 0.84375, "y": 0.6016666666666667}, {"type": "position", "time": 39284, "x": 0.84375, "y": 0.6033333333333334}, {"type": "position", "time": 39336, "x": 0.815, "y": 0.6416666666666667}, {"type": "position", "time": 39382, "x": 0.785, "y": 0.6783333333333333}, {"type": "position", "time": 39432, "x": 0.7625, "y": 0.7016666666666667}, {"type": "position", "time": 39485, "x": 0.76, "y": 0.7066666666666667}, {"type": "position", "time": 39532, "x": 0.76, "y": 0.7066666666666667}, {"type": "position", "time": 39624, "x": 0.76, "y": 0.7066666666666667}, {"type": "position", "time": 39632, "x": 0.76, "y": 0.7066666666666667}, {"type": "position", "time": 39682, "x": 0.76, "y": 0.7066666666666667}, {"type": "position", "time": 39732, "x": 0.76, "y": 0.7066666666666667}, {"type": "position", "time": 39781, "x": 0.76, "y": 0.7066666666666667}, {"type": "position", "time": 39831, "x": 0.76, "y": 0.705}, {"type": "position", "time": 39882, "x": 0.76, "y": 0.705}, {"type": "position", "time": 39932, "x": 0.76, "y": 0.705}, {"type": "position", "time": 39981, "x": 0.76, "y": 0.705}, {"type": "position", "time": 40031, "x": 0.76, "y": 0.705}, {"type": "position", "time": 40094, "x": 0.76, "y": 0.705}, {"type": "position", "time": 40133, "x": 0.76, "y": 0.705}, {"type": "position", "time": 40183, "x": 0.76, "y": 0.705}, {"type": "position", "time": 40233, "x": 0.76, "y": 0.705}, {"type": "position", "time": 40284, "x": 0.76, "y": 0.705}, {"type": "position", "time": 40332, "x": 0.76, "y": 0.705}, {"type": "position", "time": 40382, "x": 0.76, "y": 0.705}, {"type": "position", "time": 40432, "x": 0.76, "y": 0.705}, {"type": "position", "time": 40483, "x": 0.76, "y": 0.705}, {"type": "position", "time": 40538, "x": 0.76, "y": 0.705}, {"type": "position", "time": 40581, "x": 0.76, "y": 0.705}, {"type": "position", "time": 40633, "x": 0.76, "y": 0.705}, {"type": "position", "time": 40683, "x": 0.71375, "y": 0.7183333333333334}, {"type": "position", "time": 40735, "x": 0.55625, "y": 0.7616666666666667}, {"type": "position", "time": 40785, "x": 0.49125, "y": 0.7766666666666666}, {"type": "position", "time": 40836, "x": 0.48375, "y": 0.7783333333333333}, {"type": "position", "time": 40882, "x": 0.48375, "y": 0.7783333333333333}, {"type": "position", "time": 40934, "x": 0.48375, "y": 0.7783333333333333}, {"type": "position", "time": 40983, "x": 0.48375, "y": 0.7783333333333333}, {"type": "position", "time": 41033, "x": 0.48375, "y": 0.7783333333333333}, {"type": "position", "time": 41082, "x": 0.48375, "y": 0.775}, {"type": "position", "time": 41132, "x": 0.48375, "y": 0.765}, {"type": "position", "time": 41182, "x": 0.48375, "y": 0.7566666666666667}, {"type": "position", "time": 41231, "x": 0.48375, "y": 0.7533333333333333}, {"type": "position", "time": 41282, "x": 0.48375, "y": 0.7533333333333333}, {"type": "position", "time": 41331, "x": 0.48375, "y": 0.7533333333333333}, {"type": "position", "time": 41382, "x": 0.48375, "y": 0.7533333333333333}, {"type": "click", "time": 41389, "x": 0.48375, "y": 0.7533333333333333}, {"type": "position", "time": 41431, "x": 0.48375, "y": 0.7533333333333333}, {"type": "position", "time": 41482, "x": 0.48375, "y": 0.7533333333333333}, {"type": "position", "time": 41537, "x": 0.48375, "y": 0.7533333333333333}, {"type": "position", "time": 41583, "x": 0.5, "y": 0.7516666666666667}, {"type": "position", "time": 41631, "x": 0.61125, "y": 0.74}, {"type": "position", "time": 41682, "x": 0.72, "y": 0.7266666666666667}, {"type": "position", "time": 41733, "x": 0.75875, "y": 0.72}, {"type": "position", "time": 41785, "x": 0.76625, "y": 0.715}, {"type": "position", "time": 41831, "x": 0.7675, "y": 0.715}, {"type": "position", "time": 41907, "x": 0.77625, "y": 0.7066666666666667}, {"type": "position", "time": 41932, "x": 0.77625, "y": 0.7066666666666667}, {"type": "position", "time": 41983, "x": 0.77625, "y": 0.7066666666666667}, {"type": "position", "time": 42035, "x": 0.77625, "y": 0.7066666666666667}, {"type": "position", "time": 42084, "x": 0.77625, "y": 0.7066666666666667}, {"type": "click", "time": 42119, "x": 0.77625, "y": 0.7066666666666667}, {"type": "position", "time": 42132, "x": 0.77625, "y": 0.7066666666666667}, {"type": "position", "time": 42182, "x": 0.77625, "y": 0.7066666666666667}, {"type": "position", "time": 42232, "x": 0.77625, "y": 0.7066666666666667}, {"type": "position", "time": 42281, "x": 0.77625, "y": 0.7066666666666667}, {"type": "position", "time": 42332, "x": 0.77625, "y": 0.7066666666666667}, {"type": "position", "time": 42381, "x": 0.77625, "y": 0.7066666666666667}, {"type": "position", "time": 42432, "x": 0.77625, "y": 0.7066666666666667}, {"type": "position", "time": 42484, "x": 0.77625, "y": 0.7066666666666667}, {"type": "position", "time": 42536, "x": 0.77625, "y": 0.7066666666666667}, {"type": "position", "time": 42583, "x": 0.77625, "y": 0.7066666666666667}, {"type": "position", "time": 42634, "x": 0.77625, "y": 0.7066666666666667}, {"type": "position", "time": 42682, "x": 0.77625, "y": 0.7066666666666667}, {"type": "position", "time": 42734, "x": 0.77625, "y": 0.7066666666666667}, {"type": "position", "time": 42783, "x": 0.77625, "y": 0.7066666666666667}, {"type": "position", "time": 42833, "x": 0.77625, "y": 0.7066666666666667}, {"type": "position", "time": 42885, "x": 0.77625, "y": 0.7066666666666667}, {"type": "position", "time": 42935, "x": 0.77, "y": 0.6666666666666666}, {"type": "position", "time": 42986, "x": 0.75125, "y": 0.6066666666666667}, {"type": "position", "time": 43032, "x": 0.745, "y": 0.5883333333333334}, {"type": "position", "time": 43090, "x": 0.7425, "y": 0.5833333333333334}, {"type": "position", "time": 43131, "x": 0.7425, "y": 0.5833333333333334}, {"type": "position", "time": 43252, "x": 0.7425, "y": 0.5833333333333334}, {"type": "position", "time": 43254, "x": 0.7425, "y": 0.5833333333333334}, {"type": "position", "time": 43303, "x": 0.7425, "y": 0.5833333333333334}, {"type": "position", "time": 43353, "x": 0.7425, "y": 0.5816666666666667}, {"type": "position", "time": 43405, "x": 0.7425, "y": 0.58}, {"type": "position", "time": 43452, "x": 0.7425, "y": 0.58}, {"type": "position", "time": 43503, "x": 0.7425, "y": 0.58}, {"type": "position", "time": 43552, "x": 0.7425, "y": 0.58}, {"type": "position", "time": 43604, "x": 0.7425, "y": 0.58}, {"type": "position", "time": 43652, "x": 0.7425, "y": 0.58}, {"type": "position", "time": 43702, "x": 0.7425, "y": 0.58}, {"type": "position", "time": 43771, "x": 0.7425, "y": 0.58}, {"type": "position", "time": 43802, "x": 0.7425, "y": 0.58}, {"type": "position", "time": 43852, "x": 0.7425, "y": 0.58}, {"type": "position", "time": 43918, "x": 0.7425, "y": 0.58}, {"type": "position", "time": 43953, "x": 0.7425, "y": 0.58}, {"type": "position", "time": 44003, "x": 0.7425, "y": 0.58}, {"type": "position", "time": 44059, "x": 0.7425, "y": 0.58}, {"type": "position", "time": 44198, "x": 0.7425, "y": 0.58}, {"type": "position", "time": 44199, "x": 0.7425, "y": 0.58}, {"type": "position", "time": 44248, "x": 0.7425, "y": 0.58}, {"type": "position", "time": 44338, "x": 0.7425, "y": 0.58}, {"type": "position", "time": 44348, "x": 0.7425, "y": 0.58}, {"type": "position", "time": 44400, "x": 0.7425, "y": 0.58}, {"type": "position", "time": 44477, "x": 0.7425, "y": 0.58}, {"type": "position", "time": 44498, "x": 0.7425, "y": 0.58}, {"type": "position", "time": 44549, "x": 0.7425, "y": 0.58}, {"type": "position", "time": 44620, "x": 0.7425, "y": 0.58}, {"type": "position", "time": 44649, "x": 0.7425, "y": 0.58}, {"type": "position", "time": 44698, "x": 0.7425, "y": 0.58}, {"type": "position", "time": 44749, "x": 0.7425, "y": 0.58}, {"type": "position", "time": 44799, "x": 0.7425, "y": 0.58}, {"type": "position", "time": 44910, "x": 0.7425, "y": 0.58}, {"type": "position", "time": 44912, "x": 0.7425, "y": 0.58}, {"type": "position", "time": 45004, "x": 0.7425, "y": 0.58}, {"type": "position", "time": 45051, "x": 0.7425, "y": 0.58}, {"type": "position", "time": 45060, "x": 0.7425, "y": 0.58}, {"type": "position", "time": 45111, "x": 0.7425, "y": 0.58}, {"type": "position", "time": 45207, "x": 0.7425, "y": 0.58}, {"type": "position", "time": 45216, "x": 0.7425, "y": 0.58}, {"type": "position", "time": 45261, "x": 0.7425, "y": 0.58}, {"type": "position", "time": 45311, "x": 0.7425, "y": 0.58}, {"type": "position", "time": 45361, "x": 0.7425, "y": 0.58}, {"type": "position", "time": 45411, "x": 0.7425, "y": 0.58}, {"type": "position", "time": 45459, "x": 0.7425, "y": 0.58}, {"type": "position", "time": 45510, "x": 0.7425, "y": 0.58}, {"type": "position", "time": 45559, "x": 0.7425, "y": 0.58}, {"type": "position", "time": 45610, "x": 0.7425, "y": 0.58}, {"type": "position", "time": 45740, "x": 0.7425, "y": 0.58}, {"type": "position", "time": 45746, "x": 0.7425, "y": 0.58}, {"type": "position", "time": 45789, "x": 0.7425, "y": 0.58}, {"type": "position", "time": 45846, "x": 0.74125, "y": 0.5816666666666667}, {"type": "position", "time": 45890, "x": 0.74125, "y": 0.5833333333333334}, {"type": "position", "time": 45941, "x": 0.74125, "y": 0.5833333333333334}, {"type": "position", "time": 45993, "x": 0.7475, "y": 0.5916666666666667}, {"type": "position", "time": 46040, "x": 0.7625, "y": 0.6116666666666667}, {"type": "position", "time": 46094, "x": 0.75125, "y": 0.6433333333333333}, {"type": "position", "time": 46144, "x": 0.65, "y": 0.73}, {"type": "position", "time": 46190, "x": 0.6025, "y": 0.7583333333333333}, {"type": "position", "time": 46239, "x": 0.5675, "y": 0.7766666666666666}, {"type": "position", "time": 46292, "x": 0.5575, "y": 0.785}, {"type": "position", "time": 46342, "x": 0.55375, "y": 0.79}, {"type": "position", "time": 46462, "x": 0.5475, "y": 0.8016666666666666}, {"type": "position", "time": 46463, "x": 0.5475, "y": 0.8016666666666666}, {"type": "position", "time": 46521, "x": 0.5475, "y": 0.7983333333333333}, {"type": "position", "time": 46561, "x": 0.5475, "y": 0.795}, {"type": "position", "time": 46612, "x": 0.5475, "y": 0.795}, {"type": "position", "time": 46663, "x": 0.5475, "y": 0.7933333333333333}, {"type": "position", "time": 46712, "x": 0.62, "y": 0.7383333333333333}, {"type": "position", "time": 46761, "x": 0.7925, "y": 0.6233333333333333}, {"type": "position", "time": 46873, "x": 0.87125, "y": 0.5783333333333334}, {"type": "position", "time": 46876, "x": 0.87125, "y": 0.5783333333333334}, {"type": "position", "time": 46928, "x": 0.72875, "y": 0.5583333333333333}, {"type": "position", "time": 46978, "x": 0.69125, "y": 0.5583333333333333}, {"type": "position", "time": 47028, "x": 0.6775, "y": 0.5583333333333333}, {"type": "position", "time": 47075, "x": 0.6775, "y": 0.5583333333333333}, {"type": "position", "time": 47125, "x": 0.675, "y": 0.5683333333333334}, {"type": "position", "time": 47186, "x": 0.66875, "y": 0.5883333333333334}, {"type": "position", "time": 47223, "x": 0.66875, "y": 0.5883333333333334}, {"type": "position", "time": 47272, "x": 0.665, "y": 0.5916666666666667}, {"type": "position", "time": 47326, "x": 0.65375, "y": 0.6033333333333334}, {"type": "position", "time": 47379, "x": 0.63625, "y": 0.6066666666666667}, {"type": "position", "time": 47424, "x": 0.625, "y": 0.61}, {"type": "position", "time": 47473, "x": 0.625, "y": 0.61}, {"type": "position", "time": 47524, "x": 0.625, "y": 0.61}, {"type": "position", "time": 47572, "x": 0.625, "y": 0.61}, {"type": "click", "time": 47623, "x": 0.625, "y": 0.61}, {"type": "position", "time": 47626, "x": 0.625, "y": 0.61}, {"type": "position", "time": 47674, "x": 0.625, "y": 0.61}, {"type": "position", "time": 47726, "x": 0.625, "y": 0.61}, {"type": "position", "time": 47773, "x": 0.625, "y": 0.61}, {"type": "position", "time": 47825, "x": 0.625, "y": 0.61}, {"type": "position", "time": 47874, "x": 0.63, "y": 0.61}, {"type": "position", "time": 47924, "x": 0.64125, "y": 0.6066666666666667}, {"type": "position", "time": 47974, "x": 0.6475, "y": 0.6033333333333334}, {"type": "position", "time": 48025, "x": 0.655, "y": 0.6016666666666667}, {"type": "position", "time": 48073, "x": 0.66375, "y": 0.6}, {"type": "position", "time": 48127, "x": 0.66875, "y": 0.5966666666666667}, {"type": "position", "time": 48173, "x": 0.67, "y": 0.5966666666666667}, {"type": "position", "time": 48223, "x": 0.67, "y": 0.5966666666666667}, {"type": "position", "time": 48274, "x": 0.675, "y": 0.5933333333333334}, {"type": "position", "time": 48325, "x": 0.675, "y": 0.5933333333333334}, {"type": "slider", "time": 48350, "value": 0.35}, {"type": "position", "time": 48373, "x": 0.675, "y": 0.5933333333333334}, {"type": "position", "time": 48423, "x": 0.675, "y": 0.5933333333333334}, {"type": "position", "time": 48473, "x": 0.675, "y": 0.5933333333333334}, {"type": "position", "time": 48524, "x": 0.675, "y": 0.5933333333333334}, {"type": "position", "time": 48574, "x": 0.675, "y": 0.5933333333333334}, {"type": "position", "time": 48624, "x": 0.675, "y": 0.5933333333333334}, {"type": "position", "time": 48674, "x": 0.69625, "y": 0.5933333333333334}, {"type": "position", "time": 48726, "x": 0.73875, "y": 0.5933333333333334}, {"type": "position", "time": 48774, "x": 0.74375, "y": 0.595}, {"type": "slider", "time": 48798, "value": 0.46}, {"type": "position", "time": 48824, "x": 0.74375, "y": 0.595}, {"type": "position", "time": 48875, "x": 0.74375, "y": 0.595}, {"type": "position", "time": 48923, "x": 0.74375, "y": 0.595}, {"type": "position", "time": 48974, "x": 0.74375, "y": 0.595}, {"type": "position", "time": 49023, "x": 0.74375, "y": 0.595}, {"type": "position", "time": 49073, "x": 0.74375, "y": 0.595}, {"type": "position", "time": 49123, "x": 0.7525, "y": 0.595}, {"type": "position", "time": 49176, "x": 0.805, "y": 0.595}, {"type": "position", "time": 49223, "x": 0.82375, "y": 0.595}, {"type": "slider", "time": 49269, "value": 0.59}, {"type": "position", "time": 49275, "x": 0.82375, "y": 0.595}, {"type": "position", "time": 49325, "x": 0.82375, "y": 0.595}, {"type": "position", "time": 49374, "x": 0.82375, "y": 0.595}, {"type": "position", "time": 49424, "x": 0.82375, "y": 0.595}, {"type": "position", "time": 49475, "x": 0.82375, "y": 0.595}, {"type": "position", "time": 49525, "x": 0.82375, "y": 0.595}, {"type": "position", "time": 49594, "x": 0.82375, "y": 0.595}, {"type": "position", "time": 49624, "x": 0.82375, "y": 0.595}, {"type": "position", "time": 49674, "x": 0.82375, "y": 0.595}, {"type": "position", "time": 49723, "x": 0.82375, "y": 0.595}, {"type": "position", "time": 49773, "x": 0.8225, "y": 0.595}, {"type": "position", "time": 49825, "x": 0.78375, "y": 0.5966666666666667}, {"type": "position", "time": 49877, "x": 0.7575, "y": 0.5983333333333334}, {"type": "position", "time": 49924, "x": 0.75125, "y": 0.5983333333333334}, {"type": "slider", "time": 49959, "value": 0.47}, {"type": "position", "time": 49973, "x": 0.75125, "y": 0.5983333333333334}, {"type": "position", "time": 50024, "x": 0.75125, "y": 0.5983333333333334}, {"type": "position", "time": 50072, "x": 0.75125, "y": 0.5983333333333334}, {"type": "position", "time": 50123, "x": 0.75125, "y": 0.5983333333333334}, {"type": "position", "time": 50173, "x": 0.75125, "y": 0.5983333333333334}, {"type": "position", "time": 50223, "x": 0.75125, "y": 0.5983333333333334}, {"type": "position", "time": 50273, "x": 0.75125, "y": 0.5983333333333334}, {"type": "position", "time": 50325, "x": 0.73875, "y": 0.6016666666666667}, {"type": "position", "time": 50443, "x": 0.56375, "y": 0.71}, {"type": "position", "time": 50444, "x": 0.56375, "y": 0.71}, {"type": "position", "time": 50494, "x": 0.56125, "y": 0.7133333333333334}, {"type": "position", "time": 50545, "x": 0.56125, "y": 0.7133333333333334}, {"type": "position", "time": 50593, "x": 0.56125, "y": 0.7133333333333334}, {"type": "position", "time": 50643, "x": 0.56125, "y": 0.72}, {"type": "position", "time": 50693, "x": 0.5575, "y": 0.7366666666666667}, {"type": "position", "time": 50744, "x": 0.55625, "y": 0.75}, {"type": "position", "time": 50794, "x": 0.55625, "y": 0.7533333333333333}, {"type": "position", "time": 50847, "x": 0.55625, "y": 0.7533333333333333}, {"type": "position", "time": 50898, "x": 0.55625, "y": 0.7533333333333333}, {"type": "position", "time": 50943, "x": 0.55625, "y": 0.7533333333333333}, {"type": "position", "time": 50994, "x": 0.55625, "y": 0.7533333333333333}, {"type": "position", "time": 51055, "x": 0.55625, "y": 0.7533333333333333}, {"type": "position", "time": 51094, "x": 0.55625, "y": 0.7533333333333333}, {"type": "position", "time": 51143, "x": 0.55625, "y": 0.7533333333333333}, {"type": "position", "time": 51224, "x": 0.5725, "y": 0.75}, {"type": "position", "time": 51268, "x": 0.68625, "y": 0.71}, {"type": "position", "time": 51308, "x": 0.735, "y": 0.6966666666666667}, {"type": "position", "time": 51483, "x": 0.7575, "y": 0.69}, {"type": "position", "time": 51510, "x": 0.7575, "y": 0.69}, {"type": "position", "time": 51534, "x": 0.7575, "y": 0.69}, {"type": "position", "time": 51586, "x": 0.7575, "y": 0.69}, {"type": "position", "time": 51639, "x": 0.7575, "y": 0.69}, {"type": "position", "time": 51684, "x": 0.7575, "y": 0.69}, {"type": "position", "time": 51866, "x": 0.7575, "y": 0.69}, {"type": "position", "time": 51909, "x": 0.7575, "y": 0.69}, {"type": "position", "time": 51927, "x": 0.7575, "y": 0.69}, {"type": "position", "time": 51968, "x": 0.7575, "y": 0.69}, {"type": "position", "time": 52046, "x": 0.7575, "y": 0.69}, {"type": "position", "time": 52077, "x": 0.7575, "y": 0.69}, {"type": "position", "time": 52129, "x": 0.7575, "y": 0.69}, {"type": "position", "time": 52171, "x": 0.7575, "y": 0.69}, {"type": "position", "time": 52291, "x": 0.7575, "y": 0.69}, {"type": "position", "time": 52298, "x": 0.7575, "y": 0.69}, {"type": "position", "time": 52343, "x": 0.7575, "y": 0.69}, {"type": "position", "time": 52393, "x": 0.7575, "y": 0.69}, {"type": "position", "time": 52444, "x": 0.7575, "y": 0.69}, {"type": "position", "time": 52499, "x": 0.7575, "y": 0.69}, {"type": "position", "time": 52541, "x": 0.7575, "y": 0.69}, {"type": "position", "time": 52591, "x": 0.7575, "y": 0.69}, {"type": "position", "time": 52643, "x": 0.7575, "y": 0.69}, {"type": "position", "time": 52691, "x": 0.7575, "y": 0.69}, {"type": "position", "time": 52741, "x": 0.76375, "y": 0.6883333333333334}, {"type": "position", "time": 52791, "x": 0.76625, "y": 0.685}, {"type": "position", "time": 52842, "x": 0.76625, "y": 0.6833333333333333}, {"type": "position", "time": 52891, "x": 0.76, "y": 0.6833333333333333}, {"type": "position", "time": 52945, "x": 0.69625, "y": 0.6983333333333334}, {"type": "position", "time": 52992, "x": 0.5725, "y": 0.73}, {"type": "position", "time": 53041, "x": 0.51625, "y": 0.755}, {"type": "position", "time": 53141, "x": 0.4975, "y": 0.775}, {"type": "position", "time": 53141, "x": 0.4975, "y": 0.775}, {"type": "position", "time": 53196, "x": 0.49375, "y": 0.78}, {"type": "position", "time": 53245, "x": 0.5025, "y": 0.7816666666666666}, {"type": "position", "time": 53291, "x": 0.66125, "y": 0.7233333333333334}, {"type": "position", "time": 53344, "x": 0.7575, "y": 0.6866666666666666}, {"type": "position", "time": 53391, "x": 0.77875, "y": 0.6783333333333333}, {"type": "position", "time": 53441, "x": 0.78, "y": 0.6766666666666666}, {"type": "position", "time": 53491, "x": 0.78, "y": 0.6766666666666666}, {"type": "position", "time": 53542, "x": 0.78, "y": 0.6766666666666666}, {"type": "position", "time": 53591, "x": 0.78, "y": 0.6766666666666666}, {"type": "position", "time": 53641, "x": 0.78, "y": 0.6766666666666666}, {"type": "position", "time": 53693, "x": 0.78, "y": 0.6766666666666666}, {"type": "position", "time": 53741, "x": 0.78, "y": 0.6766666666666666}, {"type": "position", "time": 53791, "x": 0.78, "y": 0.6766666666666666}, {"type": "position", "time": 53844, "x": 0.78, "y": 0.6766666666666666}, {"type": "position", "time": 53899, "x": 0.7725, "y": 0.6883333333333334}, {"type": "position", "time": 53985, "x": 0.6875, "y": 0.7083333333333334}, {"type": "position", "time": 54003, "x": 0.64125, "y": 0.7133333333333334}, {"type": "position", "time": 54044, "x": 0.555, "y": 0.74}, {"type": "position", "time": 54093, "x": 0.51125, "y": 0.7633333333333333}, {"type": "position", "time": 54142, "x": 0.50125, "y": 0.7683333333333333}, {"type": "position", "time": 54191, "x": 0.50125, "y": 0.7683333333333333}, {"type": "position", "time": 54249, "x": 0.50125, "y": 0.7683333333333333}, {"type": "position", "time": 54291, "x": 0.50125, "y": 0.7683333333333333}, {"type": "position", "time": 54341, "x": 0.50375, "y": 0.77}, {"type": "position", "time": 54392, "x": 0.50625, "y": 0.7783333333333333}, {"type": "position", "time": 54441, "x": 0.50625, "y": 0.7833333333333333}, {"type": "position", "time": 54491, "x": 0.505, "y": 0.79}, {"type": "position", "time": 54546, "x": 0.4925, "y": 0.8}, {"type": "position", "time": 54595, "x": 0.48625, "y": 0.805}, {"type": "position", "time": 54641, "x": 0.48625, "y": 0.805}, {"type": "position", "time": 54694, "x": 0.48625, "y": 0.8033333333333333}, {"type": "position", "time": 54744, "x": 0.48625, "y": 0.8}, {"type": "position", "time": 54790, "x": 0.48625, "y": 0.795}, {"type": "position", "time": 54843, "x": 0.4875, "y": 0.795}, {"type": "position", "time": 54892, "x": 0.4875, "y": 0.7933333333333333}, {"type": "position", "time": 54986, "x": 0.48875, "y": 0.79}, {"type": "position", "time": 54992, "x": 0.48875, "y": 0.79}, {"type": "position", "time": 55042, "x": 0.49125, "y": 0.785}, {"type": "position", "time": 55091, "x": 0.4925, "y": 0.775}, {"type": "position", "time": 55141, "x": 0.4925, "y": 0.76}, {"type": "position", "time": 55192, "x": 0.48875, "y": 0.7566666666666667}, {"type": "position", "time": 55242, "x": 0.48875, "y": 0.7566666666666667}, {"type": "position", "time": 55295, "x": 0.48875, "y": 0.7566666666666667}, {"type": "position", "time": 55342, "x": 0.48875, "y": 0.7566666666666667}, {"type": "click", "time": 55350, "x": 0.48875, "y": 0.7566666666666667}, {"type": "position", "time": 55394, "x": 0.48875, "y": 0.7566666666666667}, {"type": "position", "time": 55443, "x": 0.48875, "y": 0.7566666666666667}, {"type": "position", "time": 55493, "x": 0.48875, "y": 0.7566666666666667}, {"type": "position", "time": 55542, "x": 0.48875, "y": 0.7566666666666667}, {"type": "position", "time": 55591, "x": 0.4925, "y": 0.755}, {"type": "position", "time": 55641, "x": 0.7, "y": 0.6866666666666666}, {"type": "position", "time": 55692, "x": 0.84125, "y": 0.6716666666666666}, {"type": "position", "time": 55744, "x": 0.865, "y": 0.6716666666666666}, {"type": "position", "time": 55793, "x": 0.86625, "y": 0.6716666666666666}, {"type": "position", "time": 55841, "x": 0.86625, "y": 0.6716666666666666}, {"type": "position", "time": 55891, "x": 0.86625, "y": 0.6716666666666666}, {"type": "position", "time": 55941, "x": 0.85875, "y": 0.6716666666666666}, {"type": "position", "time": 55995, "x": 0.81125, "y": 0.6716666666666666}, {"type": "position", "time": 56046, "x": 0.7725, "y": 0.6716666666666666}, {"type": "position", "time": 56090, "x": 0.76625, "y": 0.6716666666666666}, {"type": "position", "time": 56141, "x": 0.765, "y": 0.6716666666666666}, {"type": "position", "time": 56191, "x": 0.765, "y": 0.6733333333333333}, {"type": "position", "time": 56242, "x": 0.765, "y": 0.6733333333333333}, {"type": "position", "time": 56291, "x": 0.765, "y": 0.6733333333333333}, {"type": "position", "time": 56341, "x": 0.765, "y": 0.6733333333333333}, {"type": "position", "time": 56392, "x": 0.765, "y": 0.6733333333333333}, {"type": "position", "time": 56446, "x": 0.765, "y": 0.6816666666666666}, {"type": "position", "time": 56491, "x": 0.765, "y": 0.69}, {"type": "position", "time": 56541, "x": 0.765, "y": 0.6983333333333334}, {"type": "position", "time": 56591, "x": 0.765, "y": 0.7016666666666667}, {"type": "position", "time": 56641, "x": 0.765, "y": 0.7016666666666667}, {"type": "position", "time": 56691, "x": 0.765, "y": 0.7016666666666667}, {"type": "position", "time": 56740, "x": 0.765, "y": 0.7016666666666667}, {"type": "click", "time": 56762, "x": 0.765, "y": 0.7016666666666667}, {"type": "position", "time": 56791, "x": 0.765, "y": 0.7016666666666667}, {"type": "position", "time": 56841, "x": 0.765, "y": 0.7016666666666667}, {"type": "position", "time": 56891, "x": 0.765, "y": 0.7016666666666667}, {"type": "position", "time": 56940, "x": 0.765, "y": 0.7016666666666667}, {"type": "position", "time": 56991, "x": 0.765, "y": 0.7016666666666667}, {"type": "position", "time": 57040, "x": 0.765, "y": 0.7016666666666667}, {"type": "position", "time": 57091, "x": 0.765, "y": 0.7016666666666667}, {"type": "position", "time": 57141, "x": 0.765, "y": 0.7016666666666667}, {"type": "position", "time": 57191, "x": 0.765, "y": 0.7016666666666667}, {"type": "position", "time": 57241, "x": 0.765, "y": 0.7016666666666667}, {"type": "position", "time": 57292, "x": 0.765, "y": 0.6983333333333334}, {"type": "position", "time": 57341, "x": 0.78125, "y": 0.6516666666666666}, {"type": "position", "time": 57393, "x": 0.7975, "y": 0.61}, {"type": "position", "time": 57442, "x": 0.80375, "y": 0.5933333333333334}, {"type": "position", "time": 57491, "x": 0.805, "y": 0.5916666666666667}, {"type": "position", "time": 57541, "x": 0.805, "y": 0.5916666666666667}, {"type": "position", "time": 57593, "x": 0.805, "y": 0.5916666666666667}, {"type": "position", "time": 57641, "x": 0.805, "y": 0.5916666666666667}, {"type": "position", "time": 57691, "x": 0.805, "y": 0.5916666666666667}, {"type": "position", "time": 57804, "x": 0.805, "y": 0.59}, {"type": "position", "time": 57807, "x": 0.805, "y": 0.59}, {"type": "position", "time": 57854, "x": 0.80625, "y": 0.585}, {"type": "position", "time": 57905, "x": 0.8075, "y": 0.5766666666666667}, {"type": "position", "time": 57955, "x": 0.8075, "y": 0.5733333333333334}, {"type": "position", "time": 58024, "x": 0.8075, "y": 0.5733333333333334}, {"type": "position", "time": 58054, "x": 0.8075, "y": 0.5733333333333334}, {"type": "position", "time": 58105, "x": 0.8075, "y": 0.5733333333333334}, {"type": "position", "time": 58155, "x": 0.8075, "y": 0.5733333333333334}, {"type": "position", "time": 58236, "x": 0.8075, "y": 0.5733333333333334}, {"type": "position", "time": 58254, "x": 0.8075, "y": 0.5733333333333334}, {"type": "position", "time": 58305, "x": 0.8075, "y": 0.5733333333333334}, {"type": "position", "time": 58377, "x": 0.8075, "y": 0.5733333333333334}, {"type": "position", "time": 58409, "x": 0.8075, "y": 0.5733333333333334}, {"type": "position", "time": 58468, "x": 0.8075, "y": 0.5733333333333334}, {"type": "position", "time": 58516, "x": 0.81875, "y": 0.5766666666666667}, {"type": "position", "time": 58581, "x": 0.90375, "y": 0.5933333333333334}, {"type": "position", "time": 58623, "x": 0.91625, "y": 0.5966666666666667}, {"type": "position", "time": 58754, "x": 0.90375, "y": 0.5966666666666667}, {"type": "position", "time": 58774, "x": 0.88625, "y": 0.5966666666666667}, {"type": "position", "time": 58836, "x": 0.85, "y": 0.59}, {"type": "position", "time": 58854, "x": 0.85, "y": 0.59}, {"type": "position", "time": 58954, "x": 0.93625, "y": 0.5866666666666667}, {"type": "position", "time": 58985, "x": 0.9575, "y": 0.585}, {"type": "position", "time": 59058, "x": 0.97375, "y": 0.5816666666666667}, {"type": "position", "time": 59063, "x": 0.97375, "y": 0.5816666666666667}, {"type": "position", "time": 59112, "x": 0.97375, "y": 0.5816666666666667}, {"type": "position", "time": 59161, "x": 0.97375, "y": 0.5816666666666667}, {"type": "position", "time": 59211, "x": 0.97375, "y": 0.5816666666666667}, {"type": "position", "time": 59260, "x": 0.9775, "y": 0.5833333333333334}, {"type": "position", "time": 59308, "x": 0.98375, "y": 0.5866666666666667}, {"type": "position", "time": 59359, "x": 0.985, "y": 0.5866666666666667}, {"type": "position", "time": 59410, "x": 0.985, "y": 0.5866666666666667}, {"type": "slider", "time": 59427, "value": 0.84}, {"type": "position", "time": 59605, "x": 0.985, "y": 0.5866666666666667}, {"type": "position", "time": 59611, "x": 0.985, "y": 0.5866666666666667}, {"type": "position", "time": 59657, "x": 0.985, "y": 0.5866666666666667}, {"type": "position", "time": 59707, "x": 0.985, "y": 0.5866666666666667}, {"type": "position", "time": 59773, "x": 0.975, "y": 0.5966666666666667}, {"type": "position", "time": 59805, "x": 0.93125, "y": 0.6266666666666667}, {"type": "position", "time": 59855, "x": 0.85, "y": 0.665}, {"type": "position", "time": 59906, "x": 0.81625, "y": 0.6816666666666666}, {"type": "position", "time": 59957, "x": 0.81375, "y": 0.685}, {"type": "position", "time": 60009, "x": 0.81375, "y": 0.685}, {"type": "position", "time": 60056, "x": 0.81375, "y": 0.685}, {"type": "position", "time": 60105, "x": 0.8075, "y": 0.6916666666666667}, {"type": "position", "time": 60157, "x": 0.7775, "y": 0.71}, {"type": "position", "time": 60211, "x": 0.76125, "y": 0.7183333333333334}, {"type": "position", "time": 60255, "x": 0.75875, "y": 0.7183333333333334}, {"type": "position", "time": 60307, "x": 0.75875, "y": 0.7183333333333334}, {"type": "position", "time": 60357, "x": 0.75875, "y": 0.7183333333333334}, {"type": "position", "time": 60458, "x": 0.75875, "y": 0.7183333333333334}, {"type": "position", "time": 60460, "x": 0.75875, "y": 0.7183