{"ApprovalTime": "2016-03-10T21:15:27Z", "SubmitTime": "2016-03-10T21:11:07Z", "AssignmentId": "35USIKEBNRG8QBDXMI2U1YCCS41N6K", "HITId": "38G0E1M85M53D7EEUOHN21OJ7HQVU5", "answers": {"data": {"trials": [{"story": "painting", "time": 21921, "name": "Brittany", "rt": 17946, "blocknum": 0, "qtype": "probability", "response": 0.73, "trialnum": 1, "gender": "female", "qnum": 0}, {"story": "painting", "time": 21921, "name": "Brittany", "rt": 17946, "blocknum": 0, "qtype": "ungrammatical", "trialnum": 1, "gender": "female", "qnum": 0}, {"story": "painting", "time": 79436, "name": "Justin", "rt": 57506, "blocknum": 0, "qtype": "explanation", "response": "He did not do any painting during the class.", "trialnum": 2, "gender": "male", "qnum": 1}, {"story": "painting", "time": 89225, "name": "Justin", "rt": 9767, "blocknum": 0, "qtype": "probability", "response": 0.36, "trialnum": 3, "gender": "male", "qnum": 2}, {"story": "painting", "time": 89225, "name": "Justin", "rt": 9767, "blocknum": 0, "qtype": "ungrammatical", "trialnum": 3, "gender": "male", "qnum": 2}, {"story": "painting", "time": 129635, "name": "Jeremy", "rt": 40397, "blocknum": 0, "qtype": "probability", "response": 0.35, "trialnum": 4, "gender": "male", "qnum": 3}, {"story": "painting", "time": 129635, "name": "Jeremy", "rt": 40397, "blocknum": 0, "qtype": "ungrammatical", "response": false, "trialnum": 4, "gender": "male", "qnum": 3}, {"story": "painting", "time": 151631, "name": "Christopher", "rt": 21988, "blocknum": 0, "qtype": "probability", "response": 0.51, "trialnum": 5, "gender": "male", "qnum": 4}, {"story": "painting", "time": 151631, "name": "Christopher", "rt": 21988, "blocknum": 0, "qtype": "ungrammatical", "response": true, "trialnum": 5, "gender": "male", "qnum": 4}, {"story": "painting", "time": 160578, "name": "Kim", "rt": 8939, "blocknum": 0, "qtype": "probability", "response": 0.26, "trialnum": 6, "gender": "female", "qnum": 5}, {"story": "painting", "time": 160578, "name": "Kim", "rt": 8939, "blocknum": 0, "qtype": "ungrammatical", "response": false, "trialnum": 6, "gender": "female", "qnum": 5}, {"story": "fitness", "time": 165794, "name": "Kevin", "rt": 5205, "blocknum": 1, "qtype": "probability", "response": 0.77, "trialnum": 8, "gender": "male", "qnum": 0}, {"story": "fitness", "time": 165794, "name": "Kevin", "rt": 5205, "blocknum": 1, "qtype": "ungrammatical", "trialnum": 8, "gender": "male", "qnum": 0}, {"story": "fitness", "time": 212516, "name": "Kristen", "rt": 46720, "blocknum": 1, "qtype": "explanation", "response": "her nutrition is poor", "trialnum": 9, "gender": "female", "qnum": 1}, {"story": "fitness", "time": 228967, "name": "Kristen", "rt": 16444, "blocknum": 1, "qtype": "probability", "response": 0.62, "trialnum": 10, "gender": "female", "qnum": 2}, {"story": "fitness", "time": 228967, "name": "Kristen", "rt": 16444, "blocknum": 1, "qtype": "ungrammatical", "trialnum": 10, "gender": "female", "qnum": 2}, {"story": "fitness", "time": 240038, "name": "Natalie", "rt": 11065, "blocknum": 1, "qtype": "probability", "response": 0.76, "trialnum": 11, "gender": "female", "qnum": 3}, {"story": "fitness", "time": 240038, "name": "Natalie", "rt": 11065, "blocknum": 1, "qtype": "ungrammatical", "response": false, "trialnum": 11, "gender": "female", "qnum": 3}, {"story": "fitness", "time": 258391, "name": "Madison", "rt": 18346, "blocknum": 1, "qtype": "probability", "response": 0.78, "trialnum": 12, "gender": "female", "qnum": 4}, {"story": "fitness", "time": 258391, "name": "Madison", "rt": 18346, "blocknum": 1, "qtype": "ungrammatical", "response": true, "trialnum": 12, "gender": "female", "qnum": 4}, {"story": "fitness", "time": 265437, "name": "Kyle", "rt": 7041, "blocknum": 1, "qtype": "probability", "response": 0.74, "trialnum": 13, "gender": "male", "qnum": 5}, {"story": "fitness", "time": 265437, "name": "Kyle", "rt": 7041, "blocknum": 1, "qtype": "ungrammatical", "response": true, "trialnum": 13, "gender": "male", "qnum": 5}, {"story": "reading", "time": 271890, "name": "Heather", "rt": 6445, "blocknum": 2, "qtype": "probability", "response": 0.72, "trialnum": 15, "gender": "female", "qnum": 0}, {"story": "reading", "time": 271890, "name": "Heather", "rt": 6445, "blocknum": 2, "qtype": "ungrammatical", "trialnum": 15, "gender": "female", "qnum": 0}, {"story": "reading", "time": 293558, "name": "Michelle", "rt": 21665, "blocknum": 2, "qtype": "explanation", "response": "she drank some coffee", "trialnum": 16, "gender": "female", "qnum": 1}, {"story": "reading", "time": 300072, "name": "Michelle", "rt": 6506, "blocknum": 2, "qtype": "probability", "response": 0.74, "trialnum": 17, "gender": "female", "qnum": 2}, {"story": "reading", "time": 300072, "name": "Michelle", "rt": 6506, "blocknum": 2, "qtype": "ungrammatical", "trialnum": 17, "gender": "female", "qnum": 2}, {"story": "reading", "time": 327862, "name": "Charles", "rt": 27783, "blocknum": 2, "qtype": "probability", "response": 0.75, "trialnum": 18, "gender": "male", "qnum": 3}, {"story": "reading", "time": 327862, "name": "Charles", "rt": 27783, "blocknum": 2, "qtype": "ungrammatical", "response": false, "trialnum": 18, "gender": "male", "qnum": 3}, {"story": "reading", "time": 347956, "name": "Samuel", "rt": 20086, "blocknum": 2, "qtype": "probability", "response": 0.78, "trialnum": 19, "gender": "male", "qnum": 4}, {"story": "reading", "time": 347956, "name": "Samuel", "rt": 20086, "blocknum": 2, "qtype": "ungrammatical", "response": true, "trialnum": 19, "gender": "male", "qnum": 4}, {"story": "reading", "time": 357206, "name": "Erica", "rt": 9244, "blocknum": 2, "qtype": "probability", "response": 0.84, "trialnum": 20, "gender": "female", "qnum": 5}, {"story": "reading", "time": 357206, "name": "Erica", "rt": 9244, "blocknum": 2, "qtype": "ungrammatical", "response": false, "trialnum": 20, "gender": "female", "qnum": 5}, {"story": "insomnia", "time": 362395, "name": "Katherine", "rt": 5181, "blocknum": 3, "qtype": "probability", "response": 0.81, "trialnum": 22, "gender": "female", "qnum": 0}, {"story": "insomnia", "time": 362395, "name": "Katherine", "rt": 5181, "blocknum": 3, "qtype": "ungrammatical", "trialnum": 22, "gender": "female", "qnum": 0}, {"story": "insomnia", "time": 390650, "name": "Trevor", "rt": 28253, "blocknum": 3, "qtype": "explanation", "response": "he drank some coffee", "trialnum": 23, "gender": "male", "qnum": 1}, {"story": "insomnia", "time": 402799, "name": "Trevor", "rt": 12142, "blocknum": 3, "qtype": "probability", "response": 0.69, "trialnum": 24, "gender": "male", "qnum": 2}, {"story": "insomnia", "time": 402799, "name": "Trevor", "rt": 12142, "blocknum": 3, "qtype": "ungrammatical", "trialnum": 24, "gender": "male", "qnum": 2}, {"story": "insomnia", "time": 414708, "name": "Hannah", "rt": 11899, "blocknum": 3, "qtype": "probability", "response": 0.71, "trialnum": 25, "gender": "female", "qnum": 3}, {"story": "insomnia", "time": 414708, "name": "Hannah", "rt": 11899, "blocknum": 3, "qtype": "ungrammatical", "response": false, "trialnum": 25, "gender": "female", "qnum": 3}, {"story": "insomnia", "time": 422946, "name": "Devin", "rt": 8234, "blocknum": 3, "qtype": "probability", "response": 0.67, "trialnum": 26, "gender": "male", "qnum": 4}, {"story": "insomnia", "time": 422946, "name": "Devin", "rt": 8234, "blocknum": 3, "qtype": "ungrammatical", "response": false, "trialnum": 26, "gender": "male", "qnum": 4}, {"story": "insomnia", "time": 429263, "name": "Jacob", "rt": 6313, "blocknum": 3, "qtype": "probability", "response": 0.74, "trialnum": 27, "gender": "male", "qnum": 5}, {"story": "insomnia", "time": 429263, "name": "Jacob", "rt": 6313, "blocknum": 3, "qtype": "ungrammatical", "response": false, "trialnum": 27, "gender": "male", "qnum": 5}, {"story": "cooking", "time": 444639, "name": "Amber", "rt": 15369, "blocknum": 4, "qtype": "probability", "response": 0.73, "trialnum": 29, "gender": "female", "qnum": 0}, {"story": "cooking", "time": 444639, "name": "Amber", "rt": 15369, "blocknum": 4, "qtype": "ungrammatical", "trialnum": 29, "gender": "female", "qnum": 0}, {"story": "cooking", "time": 471249, "name": "Anna", "rt": 26608, "blocknum": 4, "qtype": "explanation", "response": "she did not pay attention", "trialnum": 30, "gender": "female", "qnum": 1}, {"story": "cooking", "time": 474361, "name": "Anna", "rt": 3099, "blocknum": 4, "qtype": "probability", "response": 0.8, "trialnum": 31, "gender": "female", "qnum": 2}, {"story": "cooking", "time": 474361, "name": "Anna", "rt": 3099, "blocknum": 4, "qtype": "ungrammatical", "trialnum": 31, "gender": "female", "qnum": 2}, {"story": "cooking", "time": 485458, "name": "Greg", "rt": 11092, "blocknum": 4, "qtype": "probability", "response": 0.8, "trialnum": 32, "gender": "male", "qnum": 3}, {"story": "cooking", "time": 485458, "name": "Greg", "rt": 11092, "blocknum": 4, "qtype": "ungrammatical", "response": false, "trialnum": 32, "gender": "male", "qnum": 3}, {"story": "cooking", "time": 496494, "name": "Alyssa", "rt": 11030, "blocknum": 4, "qtype": "probability", "response": 0.73, "trialnum": 33, "gender": "female", "qnum": 4}, {"story": "cooking", "time": 496494, "name": "Alyssa", "rt": 11030, "blocknum": 4, "qtype": "ungrammatical", "response": true, "trialnum": 33, "gender": "female", "qnum": 4}, {"story": "cooking", "time": 512881, "name": "Aaron", "rt": 16372, "blocknum": 4, "qtype": "probability", "response": 0.71, "trialnum": 34, "gender": "male", "qnum": 5}, {"story": "cooking", "time": 512881, "name": "Aaron", "rt": 16372, "blocknum": 4, "qtype": "ungrammatical", "response": false, "trialnum": 34, "gender": "male", "qnum": 5}, {"story": "beach", "time": 520003, "name": "Caleb", "rt": 7114, "blocknum": 5, "qtype": "probability", "response": 0.83, "trialnum": 36, "gender": "male", "qnum": 0}, {"story": "beach", "time": 520003, "name": "Caleb", "rt": 7114, "blocknum": 5, "qtype": "ungrammatical", "trialnum": 36, "gender": "male", "qnum": 0}, {"story": "beach", "time": 548503, "name": "Maria", "rt": 28496, "blocknum": 5, "qtype": "explanation", "response": "there were no waves", "trialnum": 37, "gender": "female", "qnum": 1}, {"story": "beach", "time": 558486, "name": "Maria", "rt": 9977, "blocknum": 5, "qtype": "probability", "response": 0.82, "trialnum": 38, "gender": "female", "qnum": 2}, {"story": "beach", "time": 558486, "name": "Maria", "rt": 9977, "blocknum": 5, "qtype": "ungrammatical", "trialnum": 38, "gender": "female", "qnum": 2}, {"story": "beach", "time": 595458, "name": "Derek", "rt": 36967, "blocknum": 5, "qtype": "probability", "response": 0.84, "trialnum": 39, "gender": "male", "qnum": 3}, {"story": "beach", "time": 595458, "name": "Derek", "rt": 36967, "blocknum": 5, "qtype": "ungrammatical", "response": false, "trialnum": 39, "gender": "male", "qnum": 3}, {"story": "beach", "time": 608969, "name": "Jessica", "rt": 13506, "blocknum": 5, "qtype": "probability", "response": 0.77, "trialnum": 40, "gender": "female", "qnum": 4}, {"story": "beach", "time": 608969, "name": "Jessica", "rt": 13506, "blocknum": 5, "qtype": "ungrammatical", "response": true, "trialnum": 40, "gender": "female", "qnum": 4}, {"story": "beach", "time": 624810, "name": "Destiny", "rt": 15833, "blocknum": 5, "qtype": "probability", "response": 0.8, "trialnum": 41, "gender": "female", "qnum": 5}, {"story": "beach", "time": 624810, "name": "Destiny", "rt": 15833, "blocknum": 5, "qtype": "ungrammatical", "response": false, "trialnum": 41, "gender": "female", "qnum": 5}, {"story": "coffee", "time": 630156, "name": "Ian", "rt": 5339, "blocknum": 6, "qtype": "probability", "response": 0.83, "trialnum": 43, "gender": "male", "qnum": 0}, {"story": "coffee", "time": 630156, "name": "Ian", "rt": 5339, "blocknum": 6, "qtype": "ungrammatical", "trialnum": 43, "gender": "male", "qnum": 0}, {"story": "coffee", "time": 650628, "name": "Daniel", "rt": 20469, "blocknum": 6, "qtype": "explanation", "response": "he had a heavy supper", "trialnum": 44, "gender": "male", "qnum": 1}, {"story": "coffee", "time": 662540, "name": "Daniel", "rt": 11906, "blocknum": 6, "qtype": "probability", "response": 0.44, "trialnum": 45, "gender": "male", "qnum": 2}, {"story": "coffee", "time": 662540, "name": "Daniel", "rt": 11906, "blocknum": 6, "qtype": "ungrammatical", "trialnum": 45, "gender": "male", "qnum": 2}, {"story": "coffee", "time": 672690, "name": "Evan", "rt": 10141, "blocknum": 6, "qtype": "probability", "response": 0.71, "trialnum": 46, "gender": "male", "qnum": 3}, {"story": "coffee", "time": 672690, "name": "Evan", "rt": 10141, "blocknum": 6, "qtype": "ungrammatical", "response": false, "trialnum": 46, "gender": "male", "qnum": 3}, {"story": "coffee", "time": 680466, "name": "Steven", "rt": 7771, "blocknum": 6, "qtype": "probability", "response": 0.66, "trialnum": 47, "gender": "male", "qnum": 4}, {"story": "coffee", "time": 680466, "name": "Steven", "rt": 7771, "blocknum": 6, "qtype": "ungrammatical", "response": false, "trialnum": 47, "gender": "male", "qnum": 4}, {"story": "coffee", "time": 690144, "name": "Victoria", "rt": 9671, "blocknum": 6, "qtype": "probability", "response": 0.36, "trialnum": 48, "gender": "female", "qnum": 5}, {"story": "coffee", "time": 690144, "name": "Victoria", "rt": 9671, "blocknum": 6, "qtype": "ungrammatical", "response": false, "trialnum": 48, "gender": "female", "qnum": 5}, {"story": "guitar", "time": 714632, "name": "Jacqueline", "rt": 24477, "blocknum": 7, "qtype": "probability", "response": 0.78, "trialnum": 50, "gender": "female", "qnum": 0}, {"story": "guitar", "time": 714632, "name": "Jacqueline", "rt": 24477, "blocknum": 7, "qtype": "ungrammatical", "trialnum": 50, "gender": "female", "qnum": 0}, {"story": "guitar", "time": 743987, "name": "Joshua", "rt": 29353, "blocknum": 7, "qtype": "explanation", "response": "he used a pick", "trialnum": 51, "gender": "male", "qnum": 1}, {"story": "guitar", "time": 748104, "name": "Joshua", "rt": 4110, "blocknum": 7, "qtype": "probability", "response": 0.82, "trialnum": 52, "gender": "male", "qnum": 2}, {"story": "guitar", "time": 748104, "name": "Joshua", "rt": 4110, "blocknum": 7, "qtype": "ungrammatical", "trialnum": 52, "gender": "male", "qnum": 2}, {"story": "guitar", "time": 757436, "name": "Megan", "rt": 9327, "blocknum": 7, "qtype": "probability", "response": 0.78, "trialnum": 53, "gender": "female", "qnum": 3}, {"story": "guitar", "time": 757436, "name": "Megan", "rt": 9327, "blocknum": 7, "qtype": "ungrammatical", "response": false, "trialnum": 53, "gender": "female", "qnum": 3}, {"story": "guitar", "time": 761704, "name": "Joseph", "rt": 4263, "blocknum": 7, "qtype": "probability", "response": 0.77, "trialnum": 54, "gender": "male", "qnum": 4}, {"story": "guitar", "time": 761704, "name": "Joseph", "rt": 4263, "blocknum": 7, "qtype": "ungrammatical", "response": false, "trialnum": 54, "gender": "male", "qnum": 4}, {"story": "guitar", "time": 767474, "name": "Cassandra", "rt": 5765, "blocknum": 7, "qtype": "probability", "response": 0.79, "trialnum": 55, "gender": "female", "qnum": 5}, {"story": "guitar", "time": 767474, "name": "Cassandra", "rt": 5765, "blocknum": 7, "qtype": "ungrammatical", "response": false, "trialnum": 55, "gender": "female", "qnum": 5}, {"story": "Japan", "time": 774011, "name": "Nathan", "rt": 6531, "blocknum": 8, "qtype": "probability", "response": 0.85, "trialnum": 57, "gender": "male", "qnum": 0}, {"story": "Japan", "time": 774011, "name": "Nathan", "rt": 6531, "blocknum": 8, "qtype": "ungrammatical", "trialnum": 57, "gender": "male", "qnum": 0}, {"story": "Japan", "time": 799561, "name": "Stephanie", "rt": 25547, "blocknum": 8, "qtype": "explanation", "response": "she is japanese", "trialnum": 58, "gender": "female", "qnum": 1}, {"story": "Japan", "time": 803574, "name": "Stephanie", "rt": 4007, "blocknum": 8, "qtype": "probability", "response": 0.74, "trialnum": 59, "gender": "female", "qnum": 2}, {"story": "Japan", "time": 803574, "name": "Stephanie", "rt": 4007, "blocknum": 8, "qtype": "ungrammatical", "trialnum": 59, "gender": "female", "qnum": 2}, {"story": "Japan", "time": 809926, "name": "Ethan", "rt": 6348, "blocknum": 8, "qtype": "probability", "response": 0.86, "trialnum": 60, "gender": "male", "qnum": 3}, {"story": "Japan", "time": 809926, "name": "Ethan", "rt": 6348, "blocknum": 8, "qtype": "ungrammatical", "response": false, "trialnum": 60, "gender": "male", "qnum": 3}, {"story": "Japan", "time": 817954, "name": "Robert", "rt": 8023, "blocknum": 8, "qtype": "probability", "response": 0.86, "trialnum": 61, "gender": "male", "qnum": 4}, {"story": "Japan", "time": 817954, "name": "Robert", "rt": 8023, "blocknum": 8, "qtype": "ungrammatical", "response": false, "trialnum": 61, "gender": "male", "qnum": 4}, {"story": "Japan", "time": 832306, "name": "Dylan", "rt": 14347, "blocknum": 8, "qtype": "probability", "response": 0.82, "trialnum": 62, "gender": "male", "qnum": 5}, {"story": "Japan", "time": 832306, "name": "Dylan", "rt": 14347, "blocknum": 8, "qtype": "ungrammatical", "response": false, "trialnum": 62, "gender": "male", "qnum": 5}], "events": [{"type": "position", "time": 132, "x": 0, "y": 0}, {"type": "position", "time": 198, "x": 0, "y": 0}, {"type": "position", "time": 230, "x": 0, "y": 0}, {"type": "position", "time": 281, "x": 0, "y": 0}, {"type": "position", "time": 331, "x": 0, "y": 0}, {"type": "position", "time": 381, "x": 0, "y": 0}, {"type": "position", "time": 431, "x": 0, "y": 0}, {"type": "position", "time": 481, "x": 0, "y": 0}, {"type": "position", "time": 530, "x": 0, "y": 0}, {"type": "position", "time": 580, "x": 0, "y": 0}, {"type": "position", "time": 631, "x": 0, "y": 0}, {"type": "position", "time": 681, "x": 0, "y": 0}, {"type": "position", "time": 731, "x": null, "y": 0.11333333333333333}, {"type": "position", "time": 781, "x": null, "y": 0.205}, {"type": "position", "time": 831, "x": null, "y": 0.265}, {"type": "position", "time": 882, "x": null, "y": 0.265}, {"type": "position", "time": 931, "x": null, "y": 0.265}, {"type": "position", "time": 984, "x": null, "y": 0.265}, {"type": "position", "time": 1034, "x": null, "y": 0.265}, {"type": "position", "time": 1080, "x": null, "y": 0.265}, {"type": "position", "time": 1130, "x": null, "y": 0.265}, {"type": "position", "time": 1182, "x": null, "y": 0.265}, {"type": "position", "time": 1231, "x": null, "y": 0.315}, {"type": "position", "time": 1281, "x": null, "y": 0.315}, {"type": "position", "time": 1331, "x": null, "y": 0.315}, {"type": "position", "time": 1380, "x": null, "y": 0.315}, {"type": "position", "time": 1431, "x": null, "y": 0.315}, {"type": "position", "time": 1482, "x": null, "y": 0.315}, {"type": "position", "time": 1532, "x": null, "y": 0.315}, {"type": "position", "time": 1580, "x": null, "y": 0.315}, {"type": "position", "time": 1631, "x": null, "y": 0.315}, {"type": "position", "time": 1681, "x": null, "y": 0.315}, {"type": "position", "time": 1730, "x": null, "y": 0.315}, {"type": "position", "time": 1781, "x": null, "y": 0.315}, {"type": "position", "time": 1832, "x": null, "y": 0.315}, {"type": "position", "time": 1883, "x": null, "y": 0.315}, {"type": "position", "time": 1931, "x": null, "y": 0.315}, {"type": "position", "time": 1981, "x": null, "y": 0.315}, {"type": "position", "time": 2031, "x": null, "y": 0.315}, {"type": "position", "time": 2082, "x": null, "y": 0.315}, {"type": "position", "time": 2131, "x": null, "y": 0.595}, {"type": "position", "time": 2181, "x": null, "y": 0.5916666666666667}, {"type": "position", "time": 2231, "x": null, "y": 0.6}, {"type": "position", "time": 2281, "x": null, "y": 0.625}, {"type": "position", "time": 2330, "x": null, "y": 0.665}, {"type": "position", "time": 2383, "x": null, "y": 0.7033333333333334}, {"type": "position", "time": 2430, "x": null, "y": 0.7033333333333334}, {"type": "position", "time": 2481, "x": null, "y": 0.7033333333333334}, {"type": "position", "time": 2532, "x": null, "y": 0.7033333333333334}, {"type": "position", "time": 2581, "x": null, "y": 0.7033333333333334}, {"type": "position", "time": 2632, "x": null, "y": 0.7033333333333334}, {"type": "position", "time": 2681, "x": null, "y": 0.7033333333333334}, {"type": "position", "time": 2732, "x": null, "y": 0.7033333333333334}, {"type": "position", "time": 2781, "x": null, "y": 0.7033333333333334}, {"type": "position", "time": 2831, "x": null, "y": 0.6983333333333334}, {"type": "position", "time": 2881, "x": null, "y": 0.665}, {"type": "position", "time": 2931, "x": null, "y": 0.5716666666666667}, {"type": "position", "time": 2981, "x": null, "y": 0.5166666666666667}, {"type": "position", "time": 3031, "x": null, "y": 0.5016666666666667}, {"type": "position", "time": 3081, "x": null, "y": 0.49833333333333335}, {"type": "position", "time": 3132, "x": null, "y": 0.49833333333333335}, {"type": "position", "time": 3181, "x": null, "y": 0.49666666666666665}, {"type": "position", "time": 3231, "x": null, "y": 0.49166666666666664}, {"type": "position", "time": 3282, "x": null, "y": 0.49166666666666664}, {"type": "position", "time": 3332, "x": null, "y": 0.495}, {"type": "position", "time": 3382, "x": null, "y": 0.5016666666666667}, {"type": "position", "time": 3432, "x": null, "y": 0.5016666666666667}, {"type": "position", "time": 3482, "x": null, "y": 0.5016666666666667}, {"type": "position", "time": 3532, "x": null, "y": 0.5016666666666667}, {"type": "position", "time": 3583, "x": null, "y": 0.5016666666666667}, {"type": "position", "time": 3633, "x": null, "y": 0.5016666666666667}, {"type": "position", "time": 3683, "x": null, "y": 0.5016666666666667}, {"type": "position", "time": 3732, "x": null, "y": 0.49166666666666664}, {"type": "position", "time": 3783, "x": null, "y": 0.49166666666666664}, {"type": "position", "time": 3833, "x": null, "y": 0.49166666666666664}, {"type": "position", "time": 3883, "x": null, "y": 0.49166666666666664}, {"type": "position", "time": 3934, "x": null, "y": 0.49166666666666664}, {"type": "click", "time": 3975, "x": null, "y": 0.49166666666666664}, {"type": "position", "time": 3984, "x": null, "y": 0.49166666666666664}, {"type": "position", "time": 4032, "x": null, "y": 0.49166666666666664}, {"type": "position", "time": 4084, "x": null, "y": 0.49166666666666664}, {"type": "position", "time": 4131, "x": null, "y": 0.49166666666666664}, {"type": "position", "time": 4181, "x": null, "y": 0.49166666666666664}, {"type": "position", "time": 4230, "x": null, "y": 0.3}, {"type": "position", "time": 4281, "x": null, "y": 0.3}, {"type": "position", "time": 4330, "x": null, "y": 0.3}, {"type": "position", "time": 4381, "x": null, "y": 0.15166666666666667}, {"type": "position", "time": 4431, "x": null, "y": 0.15166666666666667}, {"type": "position", "time": 4481, "x": null, "y": 0.15166666666666667}, {"type": "position", "time": 4532, "x": null, "y": 0.15166666666666667}, {"type": "position", "time": 4582, "x": null, "y": 0.15166666666666667}, {"type": "position", "time": 4632, "x": null, "y": 0.15166666666666667}, {"type": "position", "time": 4682, "x": null, "y": 0.15166666666666667}, {"type": "position", "time": 4730, "x": null, "y": 0.15166666666666667}, {"type": "position", "time": 4781, "x": null, "y": 0.15166666666666667}, {"type": "position", "time": 4831, "x": null, "y": 0.15166666666666667}, {"type": "position", "time": 4881, "x": null, "y": 0.15166666666666667}, {"type": "position", "time": 4931, "x": null, "y": 0.15166666666666667}, {"type": "position", "time": 4980, "x": null, "y": 0.15166666666666667}, {"type": "position", "time": 5032, "x": null, "y": 0.15166666666666667}, {"type": "position", "time": 5084, "x": null, "y": 0.15166666666666667}, {"type": "position", "time": 5131, "x": null, "y": 0.15166666666666667}, {"type": "position", "time": 5183, "x": null, "y": 0.15166666666666667}, {"type": "position", "time": 5234, "x": null, "y": 0.15166666666666667}, {"type": "position", "time": 5282, "x": null, "y": 0.15166666666666667}, {"type": "position", "time": 5331, "x": null, "y": 0.15166666666666667}, {"type": "position", "time": 5380, "x": null, "y": 0.15166666666666667}, {"type": "position", "time": 5430, "x": null, "y": 0.15166666666666667}, {"type": "position", "time": 5482, "x": null, "y": 0.15166666666666667}, {"type": "position", "time": 5531, "x": null, "y": 0.15166666666666667}, {"type": "position", "time": 5584, "x": null, "y": 0.15166666666666667}, {"type": "position", "time": 5630, "x": null, "y": 0.15166666666666667}, {"type": "position", "time": 5684, "x": null, "y": 0.15166666666666667}, {"type": "position", "time": 5731, "x": null, "y": 0.14166666666666666}, {"type": "position", "time": 5781, "x": null, "y": 0.14166666666666666}, {"type": "position", "time": 5830, "x": null, "y": 0.14166666666666666}, {"type": "position", "time": 5880, "x": null, "y": 0.165}, {"type": "position", "time": 5931, "x": null, "y": 0.165}, {"type": "position", "time": 5981, "x": null, "y": 0.165}, {"type": "position", "time": 6031, "x": null, "y": 0.165}, {"type": "position", "time": 6080, "x": null, "y": 0.165}, {"type": "position", "time": 6131, "x": null, "y": 0.165}, {"type": "position", "time": 6181, "x": null, "y": 0.165}, {"type": "position", "time": 6230, "x": null, "y": 0.165}, {"type": "position", "time": 6280, "x": null, "y": 0.165}, {"type": "position", "time": 6330, "x": null, "y": 0.165}, {"type": "position", "time": 6380, "x": null, "y": 0.165}, {"type": "position", "time": 6431, "x": null, "y": 0.165}, {"type": "position", "time": 6481, "x": null, "y": 0.165}, {"type": "position", "time": 6530, "x": null, "y": 0.165}, {"type": "position", "time": 6581, "x": null, "y": 0.165}, {"type": "position", "time": 6631, "x": null, "y": 0.165}, {"type": "position", "time": 6680, "x": null, "y": 0.165}, {"type": "position", "time": 6730, "x": null, "y": 0.165}, {"type": "position", "time": 6780, "x": null, "y": 0.165}, {"type": "position", "time": 6830, "x": null, "y": 0.165}, {"type": "position", "time": 6880, "x": null, "y": 0.165}, {"type": "position", "time": 6930, "x": null, "y": 0.165}, {"type": "position", "time": 6982, "x": null, "y": 0.165}, {"type": "position", "time": 7030, "x": null, "y": 0.165}, {"type": "position", "time": 7081, "x": null, "y": 0.165}, {"type": "position", "time": 7131, "x": null, "y": 0.165}, {"type": "position", "time": 7180, "x": null, "y": 0.385}, {"type": "position", "time": 7232, "x": null, "y": 0.385}, {"type": "position", "time": 7280, "x": null, "y": 0.385}, {"type": "position", "time": 7331, "x": null, "y": 0.385}, {"type": "position", "time": 7381, "x": null, "y": 0.385}, {"type": "position", "time": 7436, "x": null, "y": 0.385}, {"type": "position", "time": 7482, "x": null, "y": 0.385}, {"type": "position", "time": 7534, "x": null, "y": 0.385}, {"type": "position", "time": 7581, "x": null, "y": 0.385}, {"type": "position", "time": 7631, "x": null, "y": 0.385}, {"type": "position", "time": 7682, "x": null, "y": 0.385}, {"type": "position", "time": 7731, "x": null, "y": 0.385}, {"type": "position", "time": 7781, "x": null, "y": 0.385}, {"type": "position", "time": 7830, "x": null, "y": 0.385}, {"type": "position", "time": 7881, "x": null, "y": 0.385}, {"type": "position", "time": 7930, "x": null, "y": 0.385}, {"type": "position", "time": 7981, "x": null, "y": 0.385}, {"type": "position", "time": 8032, "x": null, "y": 0.385}, {"type": "position", "time": 8085, "x": null, "y": 0.385}, {"type": "position", "time": 8132, "x": null, "y": 0.385}, {"type": "position", "time": 8184, "x": null, "y": 0.385}, {"type": "position", "time": 8235, "x": null, "y": 0.385}, {"type": "position", "time": 8283, "x": null, "y": 0.385}, {"type": "position", "time": 8333, "x": null, "y": 0.385}, {"type": "position", "time": 8382, "x": null, "y": 0.385}, {"type": "position", "time": 8434, "x": null, "y": 0.385}, {"type": "position", "time": 8480, "x": null, "y": 0.385}, {"type": "position", "time": 8534, "x": null, "y": 0.385}, {"type": "position", "time": 8582, "x": null, "y": 0.385}, {"type": "position", "time": 8632, "x": null, "y": 0.385}, {"type": "position", "time": 8684, "x": null, "y": 0.385}, {"type": "position", "time": 8733, "x": null, "y": 0.385}, {"type": "position", "time": 8782, "x": null, "y": 0.385}, {"type": "position", "time": 8833, "x": null, "y": 0.385}, {"type": "position", "time": 8882, "x": null, "y": 0.385}, {"type": "position", "time": 8933, "x": null, "y": 0.385}, {"type": "position", "time": 8984, "x": null, "y": 0.385}, {"type": "position", "time": 9030, "x": null, "y": 0.385}, {"type": "position", "time": 9081, "x": null, "y": 0.385}, {"type": "position", "time": 9131, "x": null, "y": 0.385}, {"type": "position", "time": 9180, "x": null, "y": 0.385}, {"type": "position", "time": 9233, "x": null, "y": 0.385}, {"type": "position", "time": 9281, "x": null, "y": 0.385}, {"type": "position", "time": 9334, "x": null, "y": 0.385}, {"type": "position", "time": 9382, "x": null, "y": 0.385}, {"type": "position", "time": 9434, "x": null, "y": 0.385}, {"type": "position", "time": 9485, "x": null, "y": 0.385}, {"type": "position", "time": 9531, "x": null, "y": 0.385}, {"type": "position", "time": 9580, "x": null, "y": 0.385}, {"type": "position", "time": 9631, "x": null, "y": 0.385}, {"type": "position", "time": 9682, "x": null, "y": 0.385}, {"type": "position", "time": 9733, "x": null, "y": 0.385}, {"type": "position", "time": 9782, "x": null, "y": 0.385}, {"type": "position", "time": 9831, "x": null, "y": 0.385}, {"type": "position", "time": 9882, "x": null, "y": 0.385}, {"type": "position", "time": 9932, "x": null, "y": 0.385}, {"type": "position", "time": 9982, "x": null, "y": 0.385}, {"type": "position", "time": 10033, "x": null, "y": 0.385}, {"type": "position", "time": 10083, "x": null, "y": 0.385}, {"type": "position", "time": 10133, "x": null, "y": 0.385}, {"type": "position", "time": 10181, "x": null, "y": 0.385}, {"type": "position", "time": 10233, "x": null, "y": 0.385}, {"type": "position", "time": 10283, "x": null, "y": 0.385}, {"type": "position", "time": 10333, "x": null, "y": 0.385}, {"type": "position", "time": 10383, "x": null, "y": 0.385}, {"type": "position", "time": 10435, "x": null, "y": 0.385}, {"type": "position", "time": 10483, "x": null, "y": 0.385}, {"type": "position", "time": 10534, "x": null, "y": 0.385}, {"type": "position", "time": 10584, "x": null, "y": 0.385}, {"type": "position", "time": 10634, "x": null, "y": 0.385}, {"type": "position", "time": 10684, "x": null, "y": 0.385}, {"type": "position", "time": 10734, "x": null, "y": 0.385}, {"type": "position", "time": 10785, "x": null, "y": 0.385}, {"type": "position", "time": 10835, "x": null, "y": 0.385}, {"type": "position", "time": 10883, "x": null, "y": 0.385}, {"type": "position", "time": 10934, "x": null, "y": 0.385}, {"type": "position", "time": 10985, "x": null, "y": 0.385}, {"type": "position", "time": 11035, "x": null, "y": 0.385}, {"type": "position", "time": 11081, "x": null, "y": 0.385}, {"type": "position", "time": 11133, "x": null, "y": 0.385}, {"type": "position", "time": 11181, "x": null, "y": 0.385}, {"type": "position", "time": 11232, "x": null, "y": 0.385}, {"type": "position", "time": 11284, "x": null, "y": 0.385}, {"type": "position", "time": 11330, "x": null, "y": 0.385}, {"type": "position", "time": 11383, "x": null, "y": 0.385}, {"type": "position", "time": 11435, "x": null, "y": 0.385}, {"type": "position", "time": 11481, "x": null, "y": 0.385}, {"type": "position", "time": 11531, "x": null, "y": 0.385}, {"type": "position", "time": 11582, "x": null, "y": 0.385}, {"type": "position", "time": 11634, "x": null, "y": 0.385}, {"type": "position", "time": 11685, "x": null, "y": 0.385}, {"type": "position", "time": 11732, "x": null, "y": 0.385}, {"type": "position", "time": 11783, "x": null, "y": 0.385}, {"type": "position", "time": 11834, "x": null, "y": 0.385}, {"type": "position", "time": 11882, "x": null, "y": 0.385}, {"type": "position", "time": 11934, "x": null, "y": 0.385}, {"type": "position", "time": 11982, "x": null, "y": 0.385}, {"type": "position", "time": 12033, "x": null, "y": 0.385}, {"type": "position", "time": 12085, "x": null, "y": 0.385}, {"type": "position", "time": 12132, "x": null, "y": 0.385}, {"type": "position", "time": 12181, "x": null, "y": 0.385}, {"type": "position", "time": 12230, "x": null, "y": 0.385}, {"type": "position", "time": 12282, "x": null, "y": 0.385}, {"type": "position", "time": 12332, "x": null, "y": 0.385}, {"type": "position", "time": 12381, "x": null, "y": 0.385}, {"type": "position", "time": 12433, "x": null, "y": 0.385}, {"type": "position", "time": 12483, "x": null, "y": 0.385}, {"type": "position", "time": 12532, "x": null, "y": 0.385}, {"type": "position", "time": 12583, "x": null, "y": 0.385}, {"type": "position", "time": 12630, "x": null, "y": 0.385}, {"type": "position", "time": 12680, "x": null, "y": 0.385}, {"type": "position", "time": 12733, "x": null, "y": 0.385}, {"type": "position", "time": 12782, "x": null, "y": 0.385}, {"type": "position", "time": 12832, "x": null, "y": 0.385}, {"type": "position", "time": 12880, "x": null, "y": 0.385}, {"type": "position", "time": 12932, "x": null, "y": 0.385}, {"type": "position", "time": 12985, "x": null, "y": 0.385}, {"type": "position", "time": 13031, "x": null, "y": 0.385}, {"type": "position", "time": 13084, "x": null, "y": 0.385}, {"type": "position", "time": 13132, "x": null, "y": 0.385}, {"type": "position", "time": 13182, "x": null, "y": 0.385}, {"type": "position", "time": 13235, "x": null, "y": 0.385}, {"type": "position", "time": 13281, "x": null, "y": 0.385}, {"type": "position", "time": 13333, "x": null, "y": 0.385}, {"type": "position", "time": 13380, "x": null, "y": 0.385}, {"type": "position", "time": 13432, "x": null, "y": 0.385}, {"type": "position", "time": 13482, "x": null, "y": 0.385}, {"type": "position", "time": 13534, "x": null, "y": 0.385}, {"type": "position", "time": 13583, "x": null, "y": 0.385}, {"type": "position", "time": 13635, "x": null, "y": 0.385}, {"type": "position", "time": 13681, "x": null, "y": 0.385}, {"type": "position", "time": 13734, "x": null, "y": 0.385}, {"type": "position", "time": 13785, "x": null, "y": 0.385}, {"type": "position", "time": 13832, "x": null, "y": 0.385}, {"type": "position", "time": 13880, "x": null, "y": 0.385}, {"type": "position", "time": 13931, "x": null, "y": 0.385}, {"type": "position", "time": 13981, "x": null, "y": 0.385}, {"type": "position", "time": 14031, "x": null, "y": 0.385}, {"type": "position", "time": 14081, "x": null, "y": 0.385}, {"type": "position", "time": 14131, "x": null, "y": 0.385}, {"type": "position", "time": 14181, "x": null, "y": 0.385}, {"type": "position", "time": 14233, "x": null, "y": 0.385}, {"type": "position", "time": 14285, "x": null, "y": 0.385}, {"type": "position", "time": 14332, "x": null, "y": 0.385}, {"type": "position", "time": 14380, "x": null, "y": 0.385}, {"type": "position", "time": 14430, "x": null, "y": 0.385}, {"type": "position", "time": 14483, "x": null, "y": 0.385}, {"type": "position", "time": 14535, "x": null, "y": 0.385}, {"type": "position", "time": 14581, "x": null, "y": 0.385}, {"type": "position", "time": 14634, "x": null, "y": 0.385}, {"type": "position", "time": 14680, "x": null, "y": 0.385}, {"type": "position", "time": 14732, "x": null, "y": 0.385}, {"type": "position", "time": 14783, "x": null, "y": 0.385}, {"type": "position", "time": 14831, "x": null, "y": 0.385}, {"type": "position", "time": 14883, "x": null, "y": 0.385}, {"type": "position", "time": 14935, "x": null, "y": 0.385}, {"type": "position", "time": 14981, "x": null, "y": 0.385}, {"type": "position", "time": 15034, "x": null, "y": 0.385}, {"type": "position", "time": 15082, "x": null, "y": 0.385}, {"type": "position", "time": 15131, "x": null, "y": 0.385}, {"type": "position", "time": 15182, "x": null, "y": 0.385}, {"type": "position", "time": 15235, "x": null, "y": 0.385}, {"type": "position", "time": 15280, "x": null, "y": 0.39}, {"type": "position", "time": 15330, "x": null, "y": 0.44666666666666666}, {"type": "position", "time": 15381, "x": null, "y": 0.49333333333333335}, {"type": "position", "time": 15430, "x": null, "y": 0.5216666666666666}, {"type": "position", "time": 15480, "x": null, "y": 0.5366666666666666}, {"type": "position", "time": 15532, "x": null, "y": 0.545}, {"type": "position", "time": 15585, "x": null, "y": 0.55}, {"type": "position", "time": 15635, "x": null, "y": 0.5583333333333333}, {"type": "position", "time": 15680, "x": null, "y": 0.565}, {"type": "position", "time": 15731, "x": null, "y": 0.575}, {"type": "position", "time": 15781, "x": null, "y": 0.58}, {"type": "position", "time": 15830, "x": null, "y": 0.58}, {"type": "position", "time": 15882, "x": null, "y": 0.58}, {"type": "position", "time": 15934, "x": null, "y": 0.58}, {"type": "position", "time": 15980, "x": null, "y": 0.58}, {"type": "position", "time": 16030, "x": null, "y": 0.58}, {"type": "position", "time": 16080, "x": null, "y": 0.58}, {"type": "position", "time": 16131, "x": null, "y": 0.58}, {"type": "position", "time": 16181, "x": null, "y": 0.58}, {"type": "position", "time": 16231, "x": null, "y": 0.58}, {"type": "position", "time": 16281, "x": null, "y": 0.5233333333333333}, {"type": "position", "time": 16331, "x": null, "y": 0.5233333333333333}, {"type": "position", "time": 16381, "x": null, "y": 0.5233333333333333}, {"type": "position", "time": 16431, "x": null, "y": 0.5233333333333333}, {"type": "position", "time": 16480, "x": null, "y": 0.5233333333333333}, {"type": "position", "time": 16530, "x": null, "y": 0.5233333333333333}, {"type": "position", "time": 16580, "x": null, "y": 0.5233333333333333}, {"type": "position", "time": 16631, "x": null, "y": 0.5233333333333333}, {"type": "position", "time": 16680, "x": null, "y": 0.425}, {"type": "position", "time": 16730, "x": null, "y": 0.425}, {"type": "position", "time": 16780, "x": null, "y": 0.425}, {"type": "position", "time": 16830, "x": null, "y": 0.45}, {"type": "position", "time": 16880, "x": null, "y": 0.45}, {"type": "position", "time": 16930, "x": null, "y": 0.45}, {"type": "position", "time": 16980, "x": null, "y": 0.45}, {"type": "position", "time": 17031, "x": null, "y": 0.45}, {"type": "position", "time": 17080, "x": null, "y": 0.45}, {"type": "position", "time": 17130, "x": null, "y": 0.45}, {"type": "position", "time": 17182, "x": null, "y": 0.45}, {"type": "position", "time": 17230, "x": null, "y": 0.5433333333333333}, {"type": "position", "time": 17281, "x": null, "y": 0.5433333333333333}, {"type": "position", "time": 17330, "x": null, "y": 0.5433333333333333}, {"type": "position", "time": 17382, "x": null, "y": 0.5433333333333333}, {"type": "position", "time": 17431, "x": null, "y": 0.5433333333333333}, {"type": "position", "time": 17480, "x": null, "y": 0.5516666666666666}, {"type": "position", "time": 17531, "x": null, "y": 0.56}, {"type": "position", "time": 17582, "x": null, "y": 0.5683333333333334}, {"type": "position", "time": 17633, "x": null, "y": 0.5766666666666667}, {"type": "position", "time": 17681, "x": null, "y": 0.585}, {"type": "position", "time": 17730, "x": null, "y": 0.5883333333333334}, {"type": "position", "time": 17782, "x": null, "y": 0.59}, {"type": "position", "time": 17831, "x": null, "y": 0.5916666666666667}, {"type": "position", "time": 17883, "x": null, "y": 0.5933333333333334}, {"type": "position", "time": 17931, "x": null, "y": 0.595}, {"type": "position", "time": 17980, "x": null, "y": 0.5983333333333334}, {"type": "position", "time": 18032, "x": null, "y": 0.6}, {"type": "position", "time": 18082, "x": null, "y": 0.6}, {"type": "position", "time": 18132, "x": null, "y": 0.6}, {"type": "position", "time": 18180, "x": null, "y": 0.6}, {"type": "position", "time": 18233, "x": null, "y": 0.6}, {"type": "position", "time": 18285, "x": null, "y": 0.6}, {"type": "position", "time": 18332, "x": null, "y": 0.6}, {"type": "position", "time": 18383, "x": null, "y": 0.6}, {"type": "slider", "time": 18400, "value": 0.73}, {"type": "click", "time": 18407, "x": null, "y": 0.6}, {"type": "position", "time": 18430, "x": null, "y": 0.6}, {"type": "position", "time": 18482, "x": null, "y": 0.6}, {"type": "position", "time": 18535, "x": null, "y": 0.6}, {"type": "position", "time": 18581, "x": null, "y": 0.6}, {"type": "position", "time": 18631, "x": null, "y": 0.6}, {"type": "position", "time": 18681, "x": null, "y": 0.6}, {"type": "position", "time": 18731, "x": null, "y": 0.6}, {"type": "position", "time": 18781, "x": null, "y": 0.6}, {"type": "position", "time": 18832, "x": null, "y": 0.6}, {"type": "position", "time": 18883, "x": null, "y": 0.6}, {"type": "position", "time": 18930, "x": null, "y": 0.6}, {"type": "position", "time": 18984, "x": null, "y": 0.6}, {"type": "position", "time": 19034, "x": null, "y": 0.6}, {"type": "position", "time": 19084, "x": null, "y": 0.6}, {"type": "position", "time": 19131, "x": null, "y": 0.6}, {"type": "position", "time": 19181, "x": null, "y": 0.6}, {"type": "position", "time": 19230, "x": null, "y": 0.6}, {"type": "position", "time": 19283, "x": null, "y": 0.6}, {"type": "position", "time": 19332, "x": null, "y": 0.6}, {"type": "position", "time": 19382, "x": null, "y": 0.6}, {"type": "position", "time": 19434, "x": null, "y": 0.6}, {"type": "position", "time": 19482, "x": null, "y": 0.6}, {"type": "position", "time": 19533, "x": null, "y": 0.6}, {"type": "position", "time": 19586, "x": null, "y": 0.6}, {"type": "position", "time": 19631, "x": null, "y": 0.6}, {"type": "position", "time": 19680, "x": null, "y": 0.6}, {"type": "position", "time": 19732, "x": null, "y": 0.6}, {"type": "position", "time": 19781, "x": null, "y": 0.6}, {"type": "position", "time": 19830, "x": null, "y": 0.6}, {"type": "position", "time": 19883, "x": null, "y": 0.6}, {"type": "position", "time": 19933, "x": null, "y": 0.6}, {"type": "position", "time": 19983, "x": null, "y": 0.6}, {"type": "position", "time": 20032, "x": null, "y": 0.6}, {"type": "position", "time": 20084, "x": null, "y": 0.6}, {"type": "position", "time": 20130, "x": null, "y": 0.6}, {"type": "position", "time": 20183, "x": null, "y": 0.6}, {"type": "position", "time": 20235, "x": null, "y": 0.6}, {"type": "position", "time": 20282, "x": null, "y": 0.6}, {"type": "position", "time": 20334, "x": null, "y": 0.6}, {"type": "position", "time": 20380, "x": null, "y": 0.6}, {"type": "position", "time": 20430, "x": null, "y": 0.6}, {"type": "position", "time": 20481, "x": null, "y": 0.6}, {"type": "position", "time": 20531, "x": null, "y": 0.6}, {"type": "position", "time": 20581, "x": null, "y": 0.6}, {"type": "position", "time": 20630, "x": null, "y": 0.6}, {"type": "position", "time": 20680, "x": null, "y": 0.6}, {"type": "position", "time": 20731, "x": null, "y": 0.6}, {"type": "position", "time": 20780, "x": null, "y": 0.93}, {"type": "position", "time": 20832, "x": null, "y": 0.93}, {"type": "position", "time": 20882, "x": null, "y": 0.9}, {"type": "position", "time": 20931, "x": null, "y": 0.7666666666666667}, {"type": "position", "time": 20980, "x": null, "y": 0.6933333333333334}, {"type": "position", "time": 21030, "x": null, "y": 0.6783333333333333}, {"type": "position", "time": 21080, "x": null, "y": 0.6783333333333333}, {"type": "position", "time": 21131, "x": null, "y": 0.6783333333333333}, {"type": "position", "time": 21181, "x": null, "y": 0.6783333333333333}, {"type": "position", "time": 21230, "x": null, "y": 0.69}, {"type": "position", "time": 21280, "x": null, "y": 0.7033333333333334}, {"type": "position", "time": 21332, "x": null, "y": 0.705}, {"type": "position", "time": 21382, "x": null, "y": 0.705}, {"type": "position", "time": 21433, "x": null, "y": 0.705}, {"type": "position", "time": 21492, "x": null, "y": 0.7033333333333334}, {"type": "position", "time": 21543, "x": null, "y": 0.6983333333333334}, {"type": "position", "time": 21580, "x": null, "y": 0.6933333333333334}, {"type": "position", "time": 21676, "x": null, "y": 0.6933333333333334}, {"type": "position", "time": 21681, "x": null, "y": 0.6933333333333334}, {"type": "position", "time": 21733, "x": null, "y": 0.6933333333333334}, {"type": "position", "time": 21781, "x": null, "y": 0.6933333333333334}, {"type": "position", "time": 21832, "x": null, "y": 0.6933333333333334}, {"type": "position", "time": 21880, "x": null, "y": 0.6933333333333334}, {"type": "click", "time": 21932, "x": null, "y": 0.6933333333333334}, {"type": "position", "time": 21934, "x": null, "y": 0.6933333333333334}, {"type": "position", "time": 21983, "x": null, "y": 0.6933333333333334}, {"type": "position", "time": 22035, "x": null, "y": 0.6933333333333334}, {"type": "position", "time": 22082, "x": null, "y": 0.6933333333333334}, {"type": "position", "time": 22130, "x": null, "y": 0.6933333333333334}, {"type": "position", "time": 22180, "x": null, "y": 0.6933333333333334}, {"type": "position", "time": 22230, "x": null, "y": 0.6933333333333334}, {"type": "position", "time": 22280, "x": null, "y": 0.6933333333333334}, {"type": "position", "time": 22330, "x": null, "y": 0.6933333333333334}, {"type": "position", "time": 22380, "x": null, "y": 0.6933333333333334}, {"type": "position", "time": 22430, "x": null, "y": 0.6933333333333334}, {"type": "position", "time": 22482, "x": null, "y": 0.6933333333333334}, {"type": "position", "time": 22533, "x": null, "y": 0.6933333333333334}, {"type": "position", "time": 22584, "x": null, "y": 0.6933333333333334}, {"type": "position", "time": 22630, "x": null, "y": 0.6933333333333334}, {"type": "position", "time": 22685, "x": null, "y": 0.6933333333333334}, {"type": "position", "time": 22731, "x": null, "y": 0.6933333333333334}, {"type": "position", "time": 22781, "x": null, "y": 0.6933333333333334}, {"type": "position", "time": 22833, "x": null, "y": 0.6933333333333334}, {"type": "position", "time": 22881, "x": null, "y": 0.6933333333333334}, {"type": "position", "time": 22931, "x": null, "y": 0.6933333333333334}, {"type": "position", "time": 22981, "x": null, "y": 0.6933333333333334}, {"type": "position", "time": 23031, "x": null, "y": 0.6933333333333334}, {"type": "position", "time": 23081, "x": null, "y": 0.6933333333333334}, {"type": "position", "time": 23131, "x": null, "y": 0.6933333333333334}, {"type": "position", "time": 23184, "x": null, "y": 0.6933333333333334}, {"type": "position", "time": 23232, "x": null, "y": 0.6933333333333334}, {"type": "position", "time": 23283, "x": null, "y": 0.6933333333333334}, {"type": "position", "time": 23331, "x": null, "y": 0.6933333333333334}, {"type": "position", "time": 23381, "x": null, "y": 0.6933333333333334}, {"type": "position", "time": 23430, "x": null, "y": 0.6933333333333334}, {"type": "position", "time": 23480, "x": null, "y": 0.6933333333333334}, {"type": "position", "time": 23530, "x": null, "y": 0.6466666666666666}, {"type": "position", "time": 23580, "x": null, "y": 0.6466666666666666}, {"type": "position", "time": 23630, "x": null, "y": 0.6466666666666666}, {"type": "position", "time": 23681, "x": null, "y": 0.6466666666666666}, {"type": "position", "time": 23730, "x": null, "y": 0.6466666666666666}, {"type": "position", "time": 23781, "x": null, "y": 0.6133333333333333}, {"type": "position", "time": 23832, "x": null, "y": 0.6133333333333333}, {"type": "position", "time": 23881, "x": null, "y": 0.6133333333333333}, {"type": "position", "time": 23933, "x": null, "y": 0.6133333333333333}, {"type": "position", "time": 23984, "x": null, "y": 0.6133333333333333}, {"type": "position", "time": 24030, "x": null, "y": 0.6133333333333333}, {"type": "position", "time": 24081, "x": null, "y": 0.6133333333333333}, {"type": "position", "time": 24130, "x": null, "y": 0.6133333333333333}, {"type": "position", "time": 24181, "x": null, "y": 0.6133333333333333}, {"type": "position", "time": 24230, "x": null, "y": 0.6133333333333333}, {"type": "position", "time": 24280, "x": null, "y": 0.6133333333333333}, {"type": "position", "time": 24333, "x": null, "y": 0.6133333333333333}, {"type": "position", "time": 24380, "x": null, "y": 0.6133333333333333}, {"type": "position", "time": 24432, "x": null, "y": 0.6133333333333333}, {"type": "position", "time": 24481, "x": null, "y": 0.6133333333333333}, {"type": "position", "time": 24531, "x": null, "y": 0.6133333333333333}, {"type": "position", "time": 24585, "x": null, "y": 0.6133333333333333}, {"type": "position", "time": 24632, "x": null, "y": 0.6133333333333333}, {"type": "position", "time": 24682, "x": null, "y": 0.6133333333333333}, {"type": "position", "time": 24734, "x": null, "y": 0.6133333333333333}, {"type": "position", "time": 24785, "x": null, "y": 0.6133333333333333}, {"type": "position", "time": 24833, "x": null, "y": 0.6133333333333333}, {"type": "position", "time": 24883, "x": null, "y": 0.6133333333333333}, {"type": "position", "time": 24931, "x": null, "y": 0.6133333333333333}, {"type": "position", "time": 24982, "x": null, "y": 0.6133333333333333}, {"type": "position", "time": 25030, "x": null, "y": 0.6133333333333333}, {"type": "position", "time": 25081, "x": null, "y": 0.6133333333333333}, {"type": "position", "time": 25132, "x": null, "y": 0.6133333333333333}, {"type": "position", "time": 25181, "x": null, "y": 0.6133333333333333}, {"type": "position", "time": 25233, "x": null, "y": 0.6133333333333333}, {"type": "position", "time": 25285, "x": null, "y": 0.6133333333333333}, {"type": "position", "time": 25332, "x": null, "y": 0.6133333333333333}, {"type": "position", "time": 25384, "x": null, "y": 0.6133333333333333}, {"type": "position", "time": 25431, "x": null, "y": 0.6133333333333333}, {"type": "position", "time": 25483, "x": null, "y": 0.6133333333333333}, {"type": "position", "time": 25535, "x": null, "y": 0.6133333333333333}, {"type": "position", "time": 25581, "x": null, "y": 0.6133333333333333}, {"type": "position", "time": 25632, "x": null, "y": 0.6133333333333333}, {"type": "position", "time": 25680, "x": null, "y": 0.6133333333333333}, {"type": "position", "time": 25733, "x": null, "y": 0.6133333333333333}, {"type": "position", "time": 25782, "x": null, "y": 0.6133333333333333}, {"type": "position", "time": 25833, "x": null, "y": 0.6133333333333333}, {"type": "position", "time": 25883, "x": null, "y": 0.6133333333333333}, {"type": "position", "time": 25934, "x": null, "y": 0.6133333333333333}, {"type": "position", "time": 25981, "x": null, "y": 0.6133333333333333}, {"type": "position", "time": 26032, "x": null, "y": 0.6133333333333333}, {"type": "position", "time": 26081, "x": null, "y": 0.6133333333333333}, {"type": "position", "time": 26131, "x": null, "y": 0.6133333333333333}, {"type": "position", "time": 26185, "x": null, "y": 0.6133333333333333}, {"type": "position", "time": 26232, "x": null, "y": 0.6133333333333333}, {"type": "position", "time": 26284, "x": null, "y": 0.6133333333333333}, {"type": "position", "time": 26330, "x": null, "y": 0.6133333333333333}, {"type": "position", "time": 26384, "x": null, "y": 0.6133333333333333}, {"type": "position", "time": 26435, "x": null, "y": 0.6133333333333333}, {"type": "position", "time": 26481, "x": null, "y": 0.6133333333333333}, {"type": "position", "time": 26534, "x": null, "y": 0.6133333333333333}, {"type": "position", "time": 26580, "x": null, "y": 0.6133333333333333}, {"type": "position", "time": 26631, "x": null, "y": 0.6133333333333333}, {"type": "position", "time": 26684, "x": null, "y": 0.6133333333333333}, {"type": "position", "time": 26731, "x": null, "y": 0.6133333333333333}, {"type": "position", "time": 26783, "x": null, "y": 0.6133333333333333}, {"type": "position", "time": 26835, "x": null, "y": 0.6133333333333333}, {"type": "position", "time": 26880, "x": null, "y": 0.6133333333333333}, {"type": "position", "time": 26934, "x": null, "y": 0.6133333333333333}, {"type": "position", "time": 26984, "x": null, "y": 0.6133333333333333}, {"type": "position", "time": 27033, "x": null, "y": 0.6133333333333333}, {"type": "position", "time": 27083, "x": null, "y": 0.6133333333333333}, {"type": "position", "time": 27131, "x": null, "y": 0.6133333333333333}, {"type": "position", "time": 27182, "x": null, "y": 0.6133333333333333}, {"type": "position", "time": 27231, "x": null, "y": 0.6133333333333333}, {"type": "position", "time": 27281, "x": null, "y": 0.6133333333333333}, {"type": "position", "time": 27335, "x": null, "y": 0.6133333333333333}, {"type": "position", "time": 27381, "x": null, "y": 0.6133333333333333}, {"type": "position", "time": 27435, "x": null, "y": 0.6133333333333333}, {"type": "position", "time": 27483, "x": null, "y": 0.6133333333333333}, {"type": "position", "time": 27532, "x": null, "y": 0.6133333333333333}, {"type": "position", "time": 27583, "x": null, "y": 0.6133333333333333}, {"type": "position", "time": 27631, "x": null, "y": 0.6133333333333333}, {"type": "position", "time": 27683, "x": null, "y": 0.6133333333333333}, {"type": "position", "time": 27734, "x": null, "y": 0.6133333333333333}, {"type": "position", "time": 27782, "x": null, "y": 0.6133333333333333}, {"type": "position", "time": 27831, "x": null, "y": 0.6133333333333333}, {"type": "position", "time": 27880, "x": null, "y": 0.6133333333333333}, {"type": "position", "time": 27930, "x": null, "y": 0.6133333333333333}, {"type": "position", "time": 27985, "x": null, "y": 0.6133333333333333}, {"type": "position", "time": 28031, "x": null, "y": 0.6133333333333333}, {"type": "position", "time": 28083, "x": null, "y": 0.6133333333333333}, {"type": "position", "time": 28130, "x": null, "y": 0.6133333333333333}, {"type": "position", "time": 28182, "x": null, "y": 0.6133333333333333}, {"type": "position", "time": 28230, "x": null, "y": 0.6133333333333333}, {"type": "position", "time": 28281, "x": null, "y": 0.6133333333333333}, {"type": "position", "time": 28333, "x": null, "y": 0.6133333333333333}, {"type": "position", "time": 28384, "x": null, "y": 0.6133333333333333}, {"type": "position", "time": 28431, "x": null, "y": 0.6133333333333333}, {"type": "position", "time": 28484, "x": null, "y": 0.6133333333333333}, {"type": "position", "time": 28530, "x": null, "y": 0.6133333333333333}, {"type": "position", "time": 28583, "x": null, "y": 0.6133333333333333}, {"type": "position", "time": 28630, "x": null, "y": 0.6133333333333333}, {"type": "position", "time": 28681, "x": null, "y": 0.6133333333333333}, {"type": "position", "time": 28733, "x": null, "y": 0.6133333333333333}, {"type": "position", "time": 28781, "x": null, "y": 0.6133333333333333}, {"type": "position", "time": 28832, "x": null, "y": 0.6133333333333333}, {"type": "position", "time": 28882, "x": null, "y": 0.6133333333333333}, {"type": "position", "time": 28933, "x": null, "y": 0.6133333333333333}, {"type": "position", "time": 28983, "x": null, "y": 0.6133333333333333}, {"type": "position", "time": 29031, "x": null, "y": 0.6133333333333333}, {"type": "position", "time": 29082, "x": null, "y": 0.6133333333333333}, {"type": "position", "time": 29134, "x": null, "y": 0.6133333333333333}, {"type": "position", "time": 29181, "x": null, "y": 0.6133333333333333}, {"type": "position", "time": 29233, "x": null, "y": 0.6133333333333333}, {"type": "position", "time": 29280, "x": null, "y": 0.6133333333333333}, {"type": "position", "time": 29333, "x": null, "y": 0.6133333333333333}, {"type": "position", "time": 29384, "x": null, "y": 0.6133333333333333}, {"type": "position", "time": 29431, "x": null, "y": 0.6133333333333333}, {"type": "position", "time": 29480, "x": null, "y": 0.6133333333333333}, {"type": "position", "time": 29531, "x": null, "y": 0.615}, {"type": "position", "time": 29583, "x": null, "y": 0.6183333333333333}, {"type": "position", "time": 29633, "x": null, "y": 0.6183333333333333}, {"type": "position", "time": 29680, "x": null, "y": 0.615}, {"type": "position", "time": 29730, "x": null, "y": 0.6}, {"type": "position", "time": 29781, "x": null, "y": 0.5816666666666667}, {"type": "position", "time": 29832, "x": null, "y": 0.565}, {"type": "position", "time": 29882, "x": null, "y": 0.56}, {"type": "position", "time": 29931, "x": null, "y": 0.56}, {"type": "position", "time": 29982, "x": null, "y": 0.56}, {"type": "position", "time": 30034, "x": null, "y": 0.56}, {"type": "position", "time": 30080, "x": null, "y": 0.56}, {"type": "position", "time": 30133, "x": null, "y": 0.56}, {"type": "position", "time": 30182, "x": null, "y": 0.56}, {"type": "position", "time": 30231, "x": null, "y": 0.56}, {"type": "position", "time": 30284, "x": null, "y": 0.56}, {"type": "position", "time": 30333, "x": null, "y": 0.56}, {"type": "position", "time": 30381, "x": null, "y": 0.56}, {"type": "position", "time": 30430, "x": null, "y": 0.56}, {"type": "position", "time": 30481, "x": null, "y": 0.56}, {"type": "position", "time": 30533, "x": null, "y": 0.56}, {"type": "position", "time": 30594, "x": null, "y": 0.56}, {"type": "position", "time": 30633, "x": null, "y": 0.56}, {"type": "position", "time": 30684, "x": null, "y": 0.56}, {"type": "position", "time": 30733, "x": null, "y": 0.56}, {"type": "position", "time": 30784, "x": null, "y": 0.56}, {"type": "position", "time": 30834, "x": null, "y": 0.56}, {"type": "position", "time": 30884, "x": null, "y": 0.56}, {"type": "position", "time": 30931, "x": null, "y": 0.56}, {"type": "position", "time": 30984, "x": null, "y": 0.56}, {"type": "position", "time": 31035, "x": null, "y": 0.56}, {"type": "position", "time": 31085, "x": null, "y": 0.56}, {"type": "position", "time": 31134, "x": null, "y": 0.56}, {"type": "position", "time": 31183, "x": null, "y": 0.56}, {"type": "position", "time": 31230, "x": null, "y": 0.56}, {"type": "position", "time": 31280, "x": null, "y": 0.56}, {"type": "position", "time": 31334, "x": null, "y": 0.56}, {"type": "position", "time": 31384, "x": null, "y": 0.56}, {"type": "position", "time": 31433, "x": null, "y": 0.56}, {"type": "position", "time": 31481, "x": null, "y": 0.5583333333333333}, {"type": "position", "time": 31532, "x": null, "y": 0.545}, {"type": "position", "time": 31580, "x": null, "y": 0.5366666666666666}, {"type": "position", "time": 31630, "x": null, "y": 0.5366666666666666}, {"type": "position", "time": 31680, "x": null, "y": 0.535}, {"type": "position", "time": 31730, "x": null, "y": 0.535}, {"type": "position", "time": 31781, "x": null, "y": 0.535}, {"type": "position", "time": 31832, "x": null, "y": 0.5366666666666666}, {"type": "position", "time": 31880, "x": null, "y": 0.5383333333333333}, {"type": "position", "time": 31931, "x": null, "y": 0.5383333333333333}, {"type": "position", "time": 31984, "x": null, "y": 0.5383333333333333}, {"type": "position", "time": 32031, "x": null, "y": 0.5383333333333333}, {"type": "position", "time": 32082, "x": null, "y": 0.5383333333333333}, {"type": "position", "time": 32132, "x": null, "y": 0.5383333333333333}, {"type": "position", "time": 32182, "x": null, "y": 0.5383333333333333}, {"type": "position", "time": 32232, "x": null, "y": 0.5383333333333333}, {"type": "position", "time": 32284, "x": null, "y": 0.5383333333333333}, {"type": "click", "time": 32319, "x": null, "y": 0.5383333333333333}, {"type": "position", "time": 32331, "x": null, "y": 0.5383333333333333}, {"type": "position", "time": 32381, "x": null, "y": 0.5383333333333333}, {"type": "position", "time": 32431, "x": null, "y": 0.5383333333333333}, {"type": "position", "time": 32480, "x": null, "y": 0.5383333333333333}, {"type": "position", "time": 32530, "x": null, "y": 0.5383333333333333}, {"type": "position", "time": 32582, "x": null, "y": 0.5383333333333333}, {"type": "position", "time": 32632, "x": null, "y": 0.5383333333333333}, {"type": "position", "time": 32681, "x": null, "y": 0.5383333333333333}, {"type": "position", "time": 32733, "x": null, "y": 0.5383333333333333}, {"type": "position", "time": 32781, "x": null, "y": 0.5383333333333333}, {"type": "position", "time": 32831, "x": null, "y": 0.5383333333333333}, {"type": "position", "time": 32881, "x": null, "y": 0.5383333333333333}, {"type": "position", "time": 32932, "x": null, "y": 0.5383333333333333}, {"type": "position", "time": 32983, "x": null, "y": 0.5383333333333333}, {"type": "position", "time": 33034, "x": null, "y": 0.5383333333333333}, {"type": "position", "time": 33080, "x": null, "y": 0.5383333333333333}, {"type": "position", "time": 33133, "x": null, "y": 0.5383333333333333}, {"type": "position", "time": 33180, "x": null, "y": 0.5383333333333333}, {"type": "position", "time": 33231, "x": null, "y": 0.5383333333333333}, {"type": "position", "time": 33285, "x": null, "y": 0.5383333333333333}, {"type": "position", "time": 33331, "x": null, "y": 0.5383333333333333}, {"type": "position", "time": 33382, "x": null, "y": 0.5383333333333333}, {"type": "position", "time": 33430, "x": null, "y": 0.5383333333333333}, {"type": "position", "time": 33482, "x": null, "y": 0.5383333333333333}, {"type": "position", "time": 33534, "x": null, "y": 0.5383333333333333}, {"type": "position", "time": 33581, "x": null, "y": 0.5383333333333333}, {"type": "position", "time": 33631, "x": null, "y": 0.5383333333333333}, {"type": "position", "time": 33682, "x": null, "y": 0.5383333333333333}, {"type": "position", "time": 33732, "x": null, "y": 0.5383333333333333}, {"type": "position", "time": 33784, "x": null, "y": 0.5383333333333333}, {"type": "position", "time": 33830, "x": null, "y": 0.5383333333333333}, {"type": "position", "time": 33883, "x": null, "y": 0.5383333333333333}, {"type": "position", "time": 33935, "x": null, "y": 0.5383333333333333}, {"type": "position", "time": 33983, "x": null, "y": 0.5383333333333333}, {"type": "position", "time": 34033, "x": null, "y": 0.5383333333333333}, {"type": "position", "time": 34082, "x": null, "y": 0.5383333333333333}, {"type": "position", "time": 34130, "x": null, "y": 0.5383333333333333}, {"type": "position", "time": 34181, "x": null, "y": 0.5383333333333333}, {"type": "position", "time": 34231, "x": null, "y": 0.5383333333333333}, {"type": "position", "time": 34283, "x": null, "y": 0.5383333333333333}, {"type": "position", "time": 34330, "x": null, "y": 0.5383333333333333}, {"type": "position", "time": 34382, "x": null, "y": 0.5383333333333333}, {"type": "position", "time": 34434, "x": null, "y": 0.5383333333333333}, {"type": "position", "time": 34481, "x": null, "y": 0.5383333333333333}, {"type": "position", "time": 34531, "x": null, "y": 0.5383333333333333}, {"type": "position", "time": 34580, "x": null, "y": 0.5383333333333333}, {"type": "position", "time": 34630, "x": null, "y": 0.5383333333333333}, {"type": "position", "time": 34682, "x": null, "y": 0.5383333333333333}, {"type": "position", "time": 34734, "x": null, "y": 0.5383333333333333}, {"type": "position", "time": 34782, "x": null, "y": 0.5383333333333333}, {"type": "position", "time": 34832, "x": null, "y": 0.5383333333333333}, {"type": "position", "time": 34881, "x": null, "y": 0.5383333333333333}, {"type": "position", "time": 34933, "x": null, "y": 0.5383333333333333}, {"type": "position", "time": 34982, "x": null, "y": 0.5383333333333333}, {"type": "position", "time": 35031, "x": null, "y": 0.5383333333333333}, {"type": "position", "time": 35084, "x": null, "y": 0.5383333333333333}, {"type": "position", "time": 35132, "x": null, "y": 0.5383333333333333}, {"type": "position", "time": 35183, "x": null, "y": 0.5383333333333333}, {"type": "position", "time": 35230, "x": null, "y": 0.5383333333333333}, {"type": "position", "time": 35281, "x": null, "y": 0.5383333333333333}, {"type": "position", "time": 35331, "x": null, "y": 0.5383333333333333}, {"type": "position", "time": 35380, "x": null, "y": 0.5383333333333333}, {"type": "position", "time": 35433, "x": null, "y": 0.5316666666666666}, {"type": "position", "time": 35485, "x": null, "y": 0.34}, {"type": "position", "time": 35532, "x": null, "y": 0.29833333333333334}, {"type": "position", "time": 35580, "x": null, "y": 0.29833333333333334}, {"type": "position", "time": 35633, "x": null, "y": 0.29833333333333334}, {"type": "position", "time": 35682, "x": null, "y": 0.29833333333333334}, {"type": "position", "time": 35733, "x": null, "y": 0.29833333333333334}, {"type": "position", "time": 35780, "x": null, "y": 0.29833333333333334}, {"type": "position", "time": 35831, "x": null, "y": 0.3416666666666667}, {"type": "position", "time": 35880, "x": null, "y": 0.3416666666666667}, {"type": "position", "time": 35933, "x": null, "y": 0.3416666666666667}, {"type": "position", "time": 35983, "x": null, "y": 0.3416666666666667}, {"type": "position", "time": 36031, "x": null, "y": 0.3416666666666667}, {"type": "position", "time": 36083, "x": null, "y": 0.3416666666666667}, {"type": "position", "time": 36131, "x": null, "y": 0.3416666666666667}, {"type": "position", "time": 36180, "x": null, "y": 0.3416666666666667}, {"type": "position", "time": 36230, "x": null, "y": 0.3416666666666667}, {"type": "position", "time": 36281, "x": null, "y": 0.3416666666666667}, {"type": "position", "time": 36332, "x": null, "y": 0.3416666666666667}, {"type": "position", "time": 36381, "x": null, "y": 0.3416666666666667}, {"type": "position", "time": 36431, "x": null, "y": 0.3416666666666667}, {"type": "position", "time": 36481, "x": null, "y": 0.3416666666666667}, {"type": "position", "time": 36532, "x": null, "y": 0.3416666666666667}, {"type": "position", "time": 36580, "x": null, "y": 0.3416666666666667}, {"type": "position", "time": 36630, "x": null, "y": 0.3416666666666667}, {"type": "position", "time": 36680, "x": null, "y": 0.3416666666666667}, {"type": "position", "time": 36731, "x": null, "y": 0.3416666666666667}, {"type": "position", "time": 36784, "x": null, "y": 0.3416666666666667}, {"type": "position", "time": 36831, "x": null, "y": 0.3416666666666667}, {"type": "position", "time": 36881, "x": null, "y": 0.3416666666666667}, {"type": "position", "time": 36932, "x": null, "y": 0.3416666666666667}, {"type": "position", "time": 36982, "x": null, "y": 0.3416666666666667}, {"type": "position", "time": 37031, "x": null, "y": 0.3416666666666667}, {"type": "position", "time": 37083, "x": null, "y": 0.3416666666666667}, {"type": "position", "time": 37132, "x": null, "y": 0.3416666666666667}, {"type": "position", "time": 37182, "x": null, "y": 0.3416666666666667}, {"type": "position", "time": 37233, "x": null, "y": 0.3416666666666667}, {"type": "position", "time": 37284, "x": null, "y": 0.3416666666666667}, {"type": "position", "time": 37334, "x": null, "y": 0.3416666666666667}, {"type": "position", "time": 37382, "x": null, "y": 0.3416666666666667}, {"type": "position", "time": 37432, "x": null, "y": 0.3416666666666667}, {"type": "position", "time": 37482, "x": null, "y": 0.3416666666666667}, {"type": "position", "time": 37534, "x": null, "y": 0.3416666666666667}, {"type": "position", "time": 37583, "x": null, "y": 0.3416666666666667}, {"type": "position", "time": 37634, "x": null, "y": 0.3416666666666667}, {"type": "position", "time": 37683, "x": null, "y": 0.3416666666666667}, {"type": "position", "time": 37731, "x": null, "y": 0.3416666666666667}, {"type": "position", "time": 37783, "x": null, "y": 0.3416666666666667}, {"type": "position", "time": 37833, "x": null, "y": 0.3416666666666667}, {"type": "position", "time": 37882, "x": null, "y": 0.3416666666666667}, {"type": "position", "time": 37934, "x": null, "y": 0.3416666666666667}, {"type": "position", "time": 37981, "x": null, "y": 0.3416666666666667}, {"type": "position", "time": 38034, "x": null, "y": 0.3416666666666667}, {"type": "position", "time": 38084, "x": null, "y": 0.3416666666666667}, {"type": "position", "time": 38131, "x": null, "y": 0.3416666666666667}, {"type": "position", "time": 38182, "x": null, "y": 0.3416666666666667}, {"type": "position", "time": 38230, "x": null, "y": 0.3416666666666667}, {"type": "position", "time": 38280, "x": null, "y": 0.3416666666666667}, {"type": "position", "time": 38334, "x": null, "y": 0.3416666666666667}, {"type": "position", "time": 38381, "x": null, "y": 0.3416666666666667}, {"type": "position", "time": 38435, "x": null, "y": 0.3416666666666667}, {"type": "position", "time": 38484, "x": null, "y": 0.3416666666666667}, {"type": "position", "time": 38532, "x": null, "y": 0.3416666666666667}, {"type": "position", "time": 38583, "x": null, "y": 0.3416666666666667}, {"type": "position", "time": 38635, "x": null, "y": 0.3416666666666667}, {"type": "position", "time": 38683, "x": null, "y": 0.3416666666666667}, {"type": "position", "time": 38731, "x": null, "y": 0.3416666666666667}, {"type": "position", "time": 38782, "x": null, "y": 0.3416666666666667}, {"type": "position", "time": 38834, "x": null, "y": 0.3416666666666667}, {"type": "position", "time": 38880, "x": null, "y": 0.3416666666666667}, {"type": "position", "time": 38933, "x": null, "y": 0.3416666666666667}, {"type": "position", "time": 38985, "x": null, "y": 0.3416666666666667}, {"type": "position", "time": 39032, "x": null, "y": 0.3416666666666667}, {"type": "position", "time": 39080, "x": null, "y": 0.3416666666666667}, {"type": "position", "time": 39130, "x": null, "y": 0.3416666666666667}, {"type": "position", "time": 39181, "x": null, "y": 0.3416666666666667}, {"type": "position", "time": 39235, "x": null, "y": 0.3416666666666667}, {"type": "position", "time": 39283, "x": null, "y": 0.3416666666666667}, {"type": "position", "time": 39333, "x": null, "y": 0.3416666666666667}, {"type": "position", "time": 39381, "x": null, "y": 0.3416666666666667}, {"type": "position", "time": 39430, "x": null, "y": 0.3416666666666667}, {"type": "position", "time": 39484, "x": null, "y": 0.3416666666666667}, {"type": "position", "time": 39535, "x": null, "y": 0.3416666666666667}, {"type": "position", "time": 39583, "x": null, "y": 0.3416666666666667}, {"type": "position", "time": 39631, "x": null, "y": 0.3416666666666667}, {"type": "position", "time": 39682, "x": null, "y": 0.3416666666666667}, {"type": "position", "time": 39734, "x": null, "y": 0.3416666666666667}, {"type": "position", "time": 39782, "x": null, "y": 0.3416666666666667}, {"type": "position", "time": 39833, "x": null, "y": 0.3416666666666667}, {"type": "position", "time": 39884, "x": null, "y": 0.3416666666666667}, {"type": "position", "time": 39931, "x": null, "y": 0.3416666666666667}, {"type": "position", "time": 39983, "x": null, "y": 0.3416666666666667}, {"type": "position", "time": 40030, "x": null, "y": 0.3416666666666667}, {"type": "position", "time": 40082, "x": null, "y": 0.3416666666666667}, {"type": "position", "time": 40131, "x": null, "y": 0.3416666666666667}, {"type": "position", "time": 40181, "x": null, "y": 0.3416666666666667}, {"type": "position", "time": 40233, "x": null, "y": 0.3416666666666667}, {"type": "position", "time": 40283, "x": null, "y": 0.3416666666666667}, {"type": "position", "time": 40332, "x": null, "y": 0.3416666666666667}, {"type": "position", "time": 40381, "x": null, "y": 0.3416666666666667}, {"type": "position", "time": 40430, "x": null, "y": 0.3416666666666667}, {"type": "position", "time": 40483, "x": null, "y": 0.3416666666666667}, {"type": "position", "time": 40535, "x": null, "y": 0.3416666666666667}, {"type": "position", "time": 40581, "x": null, "y": 0.3416666666666667}, {"type": "position", "time": 40632, "x": null, "y": 0.3416666666666667}, {"type": "position", "time": 40680, "x": null, "y": 0.3416666666666667}, {"type": "position", "time": 40734, "x": null, "y": 0.3416666666666667}, {"type": "position", "time": 40784, "x": null, "y": 0.3416666666666667}, {"type": "position", "time": 40834, "x": null, "y": 0.3416666666666667}, {"type": "position", "time": 40884, "x": null, "y": 0.3416666666666667}, {"type": "position", "time": 40934, "x": null, "y": 0.3416666666666667}, {"type": "position", "time": 40982, "x": null, "y": 0.3416666666666667}, {"type": "position", "time": 41034, "x": null, "y": 0.3416666666666667}, {"type": "position", "time": 41081, "x": null, "y": 0.3416666666666667}, {"type": "position", "time": 41133, "x": null, "y": 0.3416666666666667}, {"type": "position", "time": 41181, "x": null, "y": 0.3416666666666667}, {"type": "position", "time": 41230, "x": null, "y": 0.3416666666666667}, {"type": "position", "time": 41284, "x": null, "y": 0.3416666666666667}, {"type": "position", "time": 41330, "x": null, "y": 0.3416666666666667}, {"type": "position", "time": 41382, "x": null, "y": 0.3416666666666667}, {"type": "position", "time": 41431, "x": null, "y": 0.3416666666666667}, {"type": "position", "time": 41481, "x": null, "y": 0.3416666666666667}, {"type": "position", "time": 41533, "x": null, "y": 0.3416666666666667}, {"type": "position", "time": 41582, "x": null, "y": 0.3416666666666667}, {"type": "position", "time": 41634, "x": null, "y": 0.3416666666666667}, {"type": "position", "time": 41684, "x": null, "y": 0.3416666666666667}, {"type": "position", "time": 41732, "x": null, "y": 0.3416666666666667}, {"type": "position", "time": 41781, "x": null, "y": 0.3416666666666667}, {"type": "position", "time": 41830, "x": null, "y": 0.3416666666666667}, {"type": "position", "time": 41883, "x": null, "y": 0.3416666666666667}, {"type": "position", "time": 41934, "x": null, "y": 0.3416666666666667}, {"type": "position", "time": 41980, "x": null, "y": 0.3416666666666667}, {"type": "position", "time": 42033, "x": null, "y": 0.3416666666666667}, {"type": "position", "time": 42081, "x": null, "y": 0.3416666666666667}, {"type": "position", "time": 42134, "x": null, "y": 0.3416666666666667}, {"type": "position", "time": 42181, "x": null, "y": 0.3416666666666667}, {"type": "position", "time": 42231, "x": null, "y": 0.3416666666666667}, {"type": "position", "time": 42285, "x": null, "y": 0.3416666666666667}, {"type": "position", "time": 42334, "x": null, "y": 0.3416666666666667}, {"type": "position", "time": 42384, "x": null, "y": 0.3416666666666667}, {"type": "position", "time": 42435, "x": null, "y": 0.3416666666666667}, {"type": "position", "time": 42484, "x": null, "y": 0.3416666666666667}, {"type": "position", "time": 42532, "x": null, "y": 0.3416666666666667}, {"type": "position", "time": 42585, "x": null, "y": 0.3416666666666667}, {"type": "position", "time": 42630, "x": null, "y": 0.3416666666666667}, {"type": "position", "time": 42683, "x": null, "y": 0.3416666666666667}, {"type": "position", "time": 42734, "x": null, "y": 0.3416666666666667}, {"type": "position", "time": 42780, "x": null, "y": 0.3416666666666667}, {"type": "position", "time": 42830, "x": null, "y": 0.3416666666666667}, {"type": "position", "time": 42880, "x": null, "y": 0.3416666666666667}, {"type": "position", "time": 42933, "x": null, "y": 0.3416666666666667}, {"type": "position", "time": 42981, "x": null, "y": 0.3416666666666667}, {"type": "position", "time": 43030, "x": null, "y": 0.3416666666666667}, {"type": "position", "time": 43080, "x": null, "y": 0.3416666666666667}, {"type": "position", "time": 43130, "x": null, "y": 0.3416666666666667}, {"type": "position", "time": 43180, "x": null, "y": 0.3416666666666667}, {"type": "position", "time": 43231, "x": null, "y": 0.3416666666666667}, {"type": "position", "time": 43281, "x": null, "y": 0.3416666666666667}, {"type": "position", "time": 43331, "x": null, "y": 0.3416666666666667}, {"type": "position", "time": 43383, "x": null, "y": 0.3416666666666667}, {"type": "position", "time": 43432, "x": null, "y": 0.3416666666666667}, {"type": "position", "time": 43482, "x": null, "y": 0.3416666666666667}, {"type": "position", "time": 43531, "x": null, "y": 0.3416666666666667}, {"type": "position", "time": 43581, "x": null, "y": 0.3416666666666667}, {"type": "position", "time": 43631, "x": null, "y": 0.3416666666666667}, {"type": "position", "time": 43681, "x": null, "y": 0.3416666666666667}, {"type": "position", "time": 43732, "x": null, "y": 0.3416666666666667}, {"type": "position", "time": 43784, "x": null, "y": 0.3416666666666667}, {"type": "position", "time": 43832, "x": null, "y": 0.3416666666666667}, {"type": "position", "time": 43883, "x": null, "y": 0.3416666666666667}, {"type": "position", "time": 43933, "x": null, "y": 0.3416666666666667}, {"type": "position", "time": 43983, "x": null, "y": 0.3416666666666667}, {"type": "position", "time": 44031, "x": null, "y": 0.3416666666666667}, {"type": "position", "time": 44084, "x": null, "y": 0.3416666666666667}, {"type": "position", "time": 44133, "x": null, "y": 0.3416666666666667}, {"type": "position", "time": 44180, "x": null, "y": 0.3416666666666667}, {"type": "position", "time": 44233, "x": null, "y": 0.3416666666666667}, {"type": "position", "time": 44283, "x": null, "y": 0.3416666666666667}, {"type": "position", "time": 44331, "x": null, "y": 0.3416666666666667}, {"type": "position", "time": 44383, "x": null, "y": 0.3416666666666667}, {"type": "position", "time": 44433, "x": null, "y": 0.3416666666666667}, {"type": "position", "time": 44484, "x": null, "y": 0.3416666666666667}, {"type": "position", "time": 44534, "x": null, "y": 0.3416666666666667}, {"type": "position", "time": 44585, "x": null, "y": 0.3416666666666667}, {"type": "position", "time": 44634, "x": null, "y": 0.3416666666666667}, {"type": "position", "time": 44682, "x": null, "y": 0.3416666666666667}, {"type": "position", "time": 44734, "x": null, "y": 0.3416666666666667}, {"type": "position", "time": 44784, "x": null, "y": 0.3416666666666667}, {"type": "position", "time": 44831, "x": null, "y": 0.3416666666666667}, {"type": "position", "time": 44885, "x": null, "y": 0.3416666666666667}, {"type": "position", "time": 44932, "x": null, "y": 0.3416666666666667}, {"type": "position", "time": 44981, "x": null, "y": 0.3416666666666667}, {"type": "position", "time": 45034, "x": null, "y": 0.3416666666666667}, {"type": "position", "time": 45081, "x": null, "y": 0.3416666666666667}, {"type": "position", "time": 45132, "x": null, "y": 0.3416666666666667}, {"type": "position", "time": 45182, "x": null, "y": 0.3416666666666667}, {"type": "position", "time": 45231, "x": null, "y": 0.3416666666666667}, {"type": "position", "time": 45284, "x": null, "y": 0.3416666666666667}, {"type": "position", "time": 45334, "x": null, "y": 0.3416666666666667}, {"type": "position", "time": 45381, "x": null, "y": 0.3416666666666667}, {"type": "position", "time": 45432, "x": null, "y": 0.3416666666666667}, {"type": "position", "time": 45481, "x": null, "y": 0.3416666666666667}, {"type": "position", "time": 45531, "x": null, "y": 0.3416666666666667}, {"type": "position", "time": 45582, "x": null, "y": 0.3416666666666667}, {"type": "position", "time": 45633, "x": null, "y": 0.3416666666666667}, {"type": "position", "time": 45682, "x": null, "y": 0.3416666666666667}, {"type": "position", "time": 45730, "x": null, "y": 0.3416666666666667}, {"type": "position", "time": 45782, "x": null, "y": 0.3416666666666667}, {"type": "position", "time": 45833, "x": null, "y": 0.3416666666666667}, {"type": "position", "time": 45881, "x": null, "y": 0.3416666666666667}, {"type": "position", "time": 45935, "x": null, "y": 0.3416666666666667}, {"type": "position", "time": 45981, "x": null, "y": 0.3416666666666667}, {"type": "position", "time": 46032, "x": null, "y": 0.3416666666666667}, {"type": "position", "time": 46084, "x": null, "y": 0.3416666666666667}, {"type": "position", "time": 46131, "x": null, "y": 0.3416666666666667}, {"type": "position", "time": 46182, "x": null, "y": 0.3416666666666667}, {"type": "position", "time": 46231, "x": null, "y": 0.3416666666666667}, {"type": "position", "time": 46282, "x": null, "y": 0.3416666666666667}, {"type": "position", "time": 46334, "x": null, "y": 0.3416666666666667}, {"type": "position", "time": 46384, "x": null, "y": 0.3416666666666667}, {"type": "position", "time": 46434, "x": null, "y": 0.3416666666666667}, {"type": "position", "time": 46483, "x": null, "y": 0.3416666666666667}, {"type": "position", "time": 46530, "x": null, "y": 0.3416666666666667}, {"type": "position", "time": 46581, "x": null, "y": 0.3416666666666667}, {"type": "position", "time": 46630, "x": null, "y": 0.3416666666666667}, {"type": "position", "time": 46682, "x": null, "y": 0.3416666666666667}, {"type": "position", "time": 46733, "x": null, "y": 0.3416666666666667}, {"type": "position", "time": 46781, "x": null, "y": 0.3416666666666667}, {"type": "position", "time": 46833, "x": null, "y": 0.3416666666666667}, {"type": "position", "time": 46880, "x": null, "y": 0.3416666666666667}, {"type": "position", "time": 46930, "x": null, "y": 0.3416666666666667}, {"type": "position", "time": 46984, "x": null, "y": 0.3416666666666667}, {"type": "position", "time": 47030, "x": null, "y": 0.3416666666666667}, {"type": "position", "time": 47083, "x": null, "y": 0.3416666666666667}, {"type": "position", "time": 47133, "x": null, "y": 0.3416666666666667}, {"type": "position", "time": 47182, "x": null, "y": 0.3416666666666667}, {"type": "position", "time": 47232, "x": null, "y": 0.3416666666666667}, {"type": "position", "time": 47283, "x": null, "y": 0.3416666666666667}, {"type": "position", "time": 47330, "x": null, "y": 0.3416666666666667}, {"type": "position", "time": 47381, "x": null, "y": 0.3416666666666667}, {"type": "position", "time": 47431, "x": null, "y": 0.3416666666666667}, {"type": "position", "time": 47480, "x": null, "y": 0.3416666666666667}, {"type": "position", "time": 47530, "x": null, "y": 0.3416666666666667}, {"type": "position", "time": 47581, "x": null, "y": 0.3416666666666667}, {"type": "position", "time": 47632, "x": null, "y": 0.3416666666666667}, {"type": "position", "time": 47683, "x": null, "y": 0.3416666666666667}, {"type": "position", "time": 47733, "x": null, "y": 0.3416666666666667}, {"type": "position", "time": 47784, "x": null, "y": 0.3416666666666667}, {"type": "position", "time": 47832, "x": null, "y": 0.3416666666666667}, {"type": "position", "time": 47882, "x": null, "y": 0.3416666666666667}, {"type": "position", "time": 47932, "x": null, "y": 0.3416666666666667}, {"type": "position", "time": 47980, "x": null, "y": 0.3416666666666667}, {"type": "position", "time": 48035, "x": null, "y": 0.3416666666666667}, {"type": "position", "time": 48083, "x": null, "y": 0.3416666666666667}, {"type": "position", "time": 48134, "x": null, "y": 0.3416666666666667}, {"type": "position", "time": 48180, "x": null, "y": 0.3416666666666667}, {"type": "position", "time": 48231, "x": null, "y": 0.3416666666666667}, {"type": "position", "time": 48280, "x": null, "y": 0.3416666666666667}, {"type": "position", "time": 48335, "x": null, "y": 0.3416666666666667}, {"type": "position", "time": 48381, "x": null, "y": 0.3416666666666667}, {"type": "position", "time": 48435, "x": null, "y": 0.3416666666666667}, {"type": "position", "time": 48480, "x": null, "y": 0.3416666666666667}, {"type": "position", "time": 48532, "x": null, "y": 0.3416666666666667}, {"type": "position", "time": 48581, "x": null, "y": 0.3416666666666667}, {"type": "position", "time": 48633, "x": null, "y": 0.3416666666666667}, {"type": "position", "time": 48683, "x": null, "y": 0.3416666666666667}, {"type": "position", "time": 48731, "x": null, "y": 0.3416666666666667}, {"type": "position", "time": 48781, "x": null, "y": 0.3416666666666667}, {"type": "position", "time": 48830, "x": null, "y": 0.3416666666666667}, {"type": "position", "time": 48880, "x": null, "y": 0.3416666666666667}, {"type": "position", "time": 48935, "x": null, "y": 0.3416666666666667}, {"type": "position", "time": 48982, "x": null, "y": 0.3416666666666667}, {"type": "position", "time": 49033, "x": null, "y": 0.3416666666666667}, {"type": "position", "time": 49080, "x": null, "y": 0.3416666666666667}, {"type": "position", "time": 49132, "x": null, "y": 0.3416666666666667}, {"type": "position", "time": 49180, "x": null, "y": 0.3416666666666667}, {"type": "position", "time": 49230, "x": null, "y": 0.3416666666666667}, {"type": "position", "time": 49280, "x": null, "y": 0.028333333333333332}, {"type": "position", "time": 49330, "x": null, "y": 0.028333333333333332}, {"type": "position", "time": 49380, "x": null, "y": 0.06166666666666667}, {"type": "position", "time": 49434, "x": null, "y": 0.06166666666666667}, {"type": "position", "time": 49480, "x": null, "y": 0.06166666666666667}, {"type": "position", "time": 49530, "x": null, "y": 0.06166666666666667}, {"type": "position", "time": 49584, "x": null, "y": 0.06166666666666667}, {"type": "position", "time": 49631, "x": null, "y": 0.06166666666666667}, {"type": "position", "time": 49684, "x": null, "y": 0.06166666666666667}, {"type": "position", "time": 49730, "x": null, "y": 0.06166666666666667}, {"type": "position", "time": 49783, "x": null, "y": 0.06166666666666667}, {"type": "position", "time": 49834, "x": null, "y": 0.06166666666666667}, {"type": "position", "time": 49881, "x": null, "y": 0.06166666666666667}, {"type": "position", "time": 49930, "x": null, "y": 0.04}, {"type": "position", "time": 49982, "x": null, "y": 0.04}, {"type": "position", "time": 50034, "x": null, "y": 0.04}, {"type": "position", "time": 50081, "x": null, "y": 0.04}, {"type": "position", "time": 50131, "x": null, "y": 0.04}, {"type": "position", "time": 50180, "x": null, "y": 0.04}, {"type": "position", "time": 50230, "x": null, "y": 0.04}, {"type": "position", "time": 50282, "x": null, "y": 0.04}, {"type": "position", "time": 50332, "x": null, "y": 0.008333333333333333}, {"type": "position", "time": 50382, "x": null, "y": 0.008333333333333333}, {"type": "position", "time": 50432, "x": null, "y": 0.008333333333333333}, {"type": "position", "time": 50483, "x": null, "y": 0.008333333333333333}, {"type": "position", "time": 50532, "x": null, "y": 0.008333333333333333}, {"type": "position", "time": 50583, "x": null, "y": 0.008333333333333333}, {"type": "position", "time": 50633, "x": null, "y": 0.008333333333333333}, {"type": "position", "time": 50685, "x": null, "y": 0.008333333333333333}, {"type": "position", "time": 50734, "x": null, "y": 0.008333333333333333}, {"type": "position", "time": 50783, "x": null, "y": 0.008333333333333333}, {"type": "position", "time": 50833, "x": null, "y": 0.008333333333333333}, {"type": "position", "time": 50883, "x": null, "y": 0.008333333333333333}, {"type": "position", "time": 50934, "x": null, "y": 0.008333333333333333}, {"type": "position", "time": 50983, "x": null, "y": 0.008333333333333333}, {"type": "position", "time": 51034, "x": null, "y": 0.008333333333333333}, {"type": "position", "time": 51080, "x": null, "y": 0.008333333333333333}, {"type": "position", "time": 51130, "x": null, "y": 0.008333333333333333}, {"type": "position", "time": 51180, "x": null, "y": 0.008333333333333333}, {"type": "position", "time": 51235, "x": null, "y": 0.008333333333333333}, {"type": "position", "time": 51285, "x": null, "y": 0.008333333333333333}, {"type": "position", "time": 51332, "x": null, "y": 0.008333333333333333}, {"type": "position", "time": 51381, "x": null, "y": 0.008333333333333333}, {"type": "position", "time": 51431, "x": null, "y": 0.008333333333333333}, {"type": "position", "time": 51481, "x": null, "y": 0.008333333333333333}, {"type": "position", "time": 51535, "x": null, "y": 0.008333333333333333}, {"type": "position", "time": 51580, "x": null, "y": 0.008333333333333333}, {"type": "position", "time": 51632, "x": null, "y": 0.008333333333333333}, {"type": "position", "time": 51685, "x": null, "y": 0.008333333333333333}, {"type": "position", "time": 51731, "x": null, "y": 0.008333333333333333}, {"type": "position", "time": 51781, "x": null, "y": 0.043333333333333335}, {"type": "position", "time": 51831, "x": null, "y": 0.20166666666666666}, {"type": "position", "time": 51880, "x": null, "y": 0.31833333333333336}, {"type": "position", "time": 51930, "x": null, "y": 0.3983333333333333}, {"type": "position", "time": 51980, "x": null, "y": 0.43}, {"type": "position", "time": 52030, "x": null, "y": 0.44666666666666666}, {"type": "position", "time": 52081, "x": null, "y": 0.4583333333333333}, {"type": "position", "time": 52131, "x": null, "y": 0.46}, {"type": "position", "time": 52181, "x": null, "y": 0.46}, {"type": "position", "time": 52232, "x": null, "y": 0.46}, {"type": "position", "time": 52284, "x": null, "y": 0.46}, {"type": "position", "time": 52330, "x": null, "y": 0.46}, {"type": "position", "time": 52382, "x": null, "y": 0.46}, {"type": "position", "time": 52432, "x": null, "y": 0.46}, {"type": "position", "time": 52481, "x": null, "y": 0.46}, {"type": "position", "time": 52534, "x": null, "y": 0.46}, {"type": "position", "time": 52580, "x": null, "y": 0.46}, {"type": "position", "time": 52632, "x": null, "y": 0.46}, {"type": "position", "time": 52685, "x": null, "y": 0.46}, {"type": "position", "time": 52731, "x": null, "y": 0.46}, {"type": "position", "time": 52784, "x": null, "y": 0.46}, {"type": "position", "time": 52830, "x": null, "y": 0.46}, {"type": "position", "time": 52881, "x": null, "y": 0.46}, {"type": "position", "time": 52934, "x": null, "y": 0.46}, {"type": "position", "time": 52981, "x": null, "y": 0.46}, {"type": "position", "time": 53033, "x": null, "y": 0.46}, {"type": "position", "time": 53080, "x": null, "y": 0.46}, {"type": "position", "time": 53131, "x": null, "y": 0.46}, {"type": "position", "time": 53182, "x": null, "y": 0.46}, {"type": "position", "time": 53231, "x": null, "y": 0.46}, {"type": "position", "time": 53282, "x": null, "y": 0.46}, {"type": "position", "time": 53335, "x": null, "y": 0.46}, {"type": "position", "time": 53385, "x": null, "y": 0.46}, {"type": "position", "time": 53433, "x": null, "y": 0.46}, {"type": "position", "time": 53480, "x": null, "y": 0.46}, {"type": "position", "time": 53532, "x": null, "y": 0.46}, {"type": "position", "time": 53580, "x": null, "y": 0.46}, {"type": "position", "time": 53632, "x": null, "y": 0.46}, {"type": "position", "time": 53683, "x": null, "y": 0.46}, {"type": "position", "time": 53733, "x": null, "y": 0.46}, {"type": "position", "time": 53783, "x": null, "y": 0.46}, {"type": "position", "time": 53834, "x": null, "y": 0.46}, {"type": "position", "time": 53881, "x": null, "y": 0.46}, {"type": "position", "time": 53933, "x": null, "y": 0.46}, {"type": "position", "time": 53980, "x": null, "y": 0.46}, {"type": "position", "time": 54031, "x": null, "y": 0.46}, {"type": "position", "time": 54080, "x": null, "y": 0.46}, {"type": "position", "time": 54131, "x": null, "y": 0.46}, {"type": "position", "time": 54182, "x": null, "y": 0.46}, {"type": "position", "time": 54231, "x": null, "y": 0.46}, {"type": "position", "time": 54280, "x": null, "y": 0.46}, {"type": "position", "time": 54333, "x": null, "y": 0.46}, {"type": "position", "time": 54383, "x": null, "y": 0.46}, {"type": "position", "time": 54432, "x": null, "y": 0.46}, {"type": "position", "time": 54481, "x": null, "y": 0.46}, {"type": "position", "time": 54530, "x": null, "y": 0.46}, {"type": "position", "time": 54581, "x": null, "y": 0.46}, {"type": "position", "time": 54634, "x": null, "y": 0.46}, {"type": "position", "time": 54680, "x": null, "y": 0.46}, {"type": "position", "time": 54732, "x": null, "y": 0.46}, {"type": "position", "time": 54780, "x": null, "y": 0.46}, {"type": "position", "time": 54830, "x": null, "y": 0.46}, {"type": "position", "time": 54883, "x": null, "y": 0.46}, {"type": "position", "time": 54931, "x": null, "y": 0.46}, {"type": "position", "time": 54984, "x": null, "y": 0.46}, {"type": "position", "time": 55030, "x": null, "y": 0.46}, {"type": "position", "time": 55080, "x": null, "y": 0.46}, {"type": "position", "time": 55130, "x": null, "y": 0.46}, {"type": "position", "time": 55182, "x": null, "y": 0.46}, {"type": "position", "time": 55230, "x": null, "y": 0.46}, {"type": "position", "time": 55280, "x": null, "y": 0.46}, {"type": "position", "time": 55332, "x": null, "y": 0.46}, {"type": "position", "time": 55384, "x": null, "y": 0.46}, {"type": "position", "time": 55434, "x": null, "y": 0.46}, {"type": "position", "time": 55482, "x": null, "y": 0.46}, {"type": "position", "time": 55533, "x": null, "y": 0.46}, {"type": "position", "time": 55581, "x": null, "y": 0.46}, {"type": "position", "time": 55630, "x": null, "y": 0.46}, {"type": "position", "time": 55680, "x": null, "y": 0.46}, {"type": "position", "time": 55732, "x": null, "y": 0.46}, {"type": "position", "time": 55784, "x": null, "y": 0.46}, {"type": "position", "time": 55831, "x": null, "y": 0.46}, {"type": "position", "time": 55881, "x": null, "y": 0.46}, {"type": "position", "time": 55930, "x": null, "y": 0.46}, {"type": "position", "time": 55984, "x": null, "y": 0.46}, {"type": "position", "time": 56034, "x": null, "y": 0.46}, {"type": "position", "time": 56080, "x": null, "y": 0.46}, {"type": "position", "time": 56130, "x": null, "y": 0.46}, {"type": "position", "time": 56180, "x": null, "y": 0.46}, {"type": "position", "time": 56230, "x": null, "y": 0.46}, {"type": "position", "time": 56280, "x": null, "y": 0.46}, {"type": "position", "time": 56330, "x": null, "y": 0.46}, {"type": "position", "time": 56382, "x": null, "y": 0.46}, {"type": "position", "time": 56434, "x": null, "y": 0.46}, {"type": "position", "time": 56483, "x": null, "y": 0.46}, {"type": "position", "time": 56531, "x": null, "y": 0.46}, {"type": "position", "time": 56580, "x": null, "y": 0.46}, {"type": "position", "time": 56630, "x": null, "y": 0.46}, {"type": "position", "time": 56680, "x": null, "y": 0.46}, {"type": "position", "time": 56730, "x": null, "y": 0.46}, {"type": "position", "time": 56781, "x": null, "y": 0.46}, {"type": "position", "time": 56834, "x": null, "y": 0.46}, {"type": "position", "time": 56881, "x": null, "y": 0.46}, {"type": "position", "time": 56931, "x": null, "y": 0.46}, {"type": "position", "time": 56984, "x": null, "y": 0.46}, {"type": "position", "time": 57031, "x": null, "y": 0.46}, {"type": "position", "time": 57080, "x": null, "y": 0.46}, {"type": "position", "time": 57131, "x": null, "y": 0.46}, {"type": "position", "time": 57181, "x": null, "y": 0.46}, {"type": "position", "time": 57231, "x": null, "y": 0.46}, {"type": "position", "time": 57282, "x": null, "y": 0.46}, {"type": "position", "time": 57332, "x": null, "y": 0.46}, {"type": "position", "time": 57382, "x": null, "y": 0.46}, {"type": "position", "time": 57432, "x": null, "y": 0.46}, {"type": "position", "time": 57483, "x": null, "y": 0.46}, {"type": "position", "time": 57533, "x": null, "y": 0.46}, {"type": "position", "time": 57580, "x": null, "y": 0.46}, {"type": "position", "time": 57630, "x": null, "y": 0.46}, {"type": "position", "time": 57683, "x": null, "y": 0.46}, {"type": "position", "time": 57734, "x": null, "y": 0.46}, {"type": "position", "time": 57784, "x": null, "y": 0.46}, {"type": "position", "time": 57833, "x": null, "y": 0.46}, {"type": "position", "time": 57884, "x": null, "y": 0.46}, {"type": "position", "time": 57934, "x": null, "y": 0.46}, {"type": "position", "time": 57984, "x": null, "y": 0.46}, {"type": "position", "time": 58034, "x": null, "y": 0.46}, {"type": "position", "time": 58080, "x": null, "y": 0.46}, {"type": "position", "time": 58133, "x": null, "y": 0.46}, {"type": "position", "time": 58184, "x": null, "y": 0.46}, {"type": "position", "time": 58234, "x": null, "y": 0.46}, {"type": "position", "time": 58280, "x": null, "y": 0.46}, {"type": "position", "time": 58335, "x": null, "y": 0.46}, {"type": "position", "time": 58383, "x": null, "y": 0.46}, {"type": "position", "time": 58434, "x": null, "y": 0.46}, {"type": "position", "time": 58483, "x": null, "y": 0.46}, {"type": "position", "time": 58530, "x": null, "y": 0.46}, {"type": "position", "time": 58580, "x": null, "y": 0.46}, {"type": "position", "time": 58632, "x": null, "y": 0.46}, {"type": "position", "time": 58683, "x": null, "y": 0.46}, {"type": "position", "time": 58734, "x": null, "y": 0.46}, {"type": "position", "time": 58780, "x": null, "y": 0.46}, {"type": "position", "time": 58831, "x": null, "y": 0.46}, {"type": "position", "time": 58880, "x": null, "y": 0.46}, {"type": "position", "time": 58931, "x": null, "y": 0.46}, {"type": "position", "time": 58983, "x": null, "y": 0.46}, {"type": "position", "time": 59030, "x": null, "y": 0.46}, {"type": "position", "time": 59080, "x": null, "y": 0.46}, {"type": "position", "time": 59131, "x": null, "y": 0.46}, {"type": "position", "time": 59180, "x": null, "y": 0.46}, {"type": "position", "time": 59232, "x": null, "y": 0.46}, {"type": "position", "time": 59282, "x": null, "y": 0.46}, {"type": "position", "time": 59334, "x": null, "y": 0.46}, {"type": "position", "time": 59383, "x": null, "y": 0.46}, {"type": "position", "time": 59431, "x": null, "y": 0.46}, {"type": "position", "time": 59482, "x": null, "y": 0.46}, {"type": "position", "time": 59535, "x": null, "y": 0.46}, {"type": "position", "time": 59581, "x": null, "y": 0.46}, {"type": "position", "time": 59631, "x": null, "y": 0.46}, {"type": "position", "time": 59682, "x": null, "y": 0.46}, {"type": "position", "time": 59732, "x": null, "y": 0.46}, {"type": "position", "time": 59784, "x": null, "y": 0.46}, {"type": "position", "time": 59830, "x": null, "y": 0.46}, {"type": "position", "time": 59883, "x": null, "y": 0.46}, {"type": "position", "time": 59933, "x": null, "y": 0.46}, {"type": "position", "time": 59981, "x": null, "y": 0.46}, {"type": "position", "time": 60033, "x": null, "y": 0.46}, {"type": "position", "time": 60082, "x": null, "y": 0.46}, {"type": "position", "time": 60135, "x": null, "y": 0.46}, {"type": "position", "time": 60185, "x": null, "y": 0.46}, {"type": "position", "time": 60231, "x": null, "y": 0.46}, {"type": "position", "time": 60281, "x": null, "y": 0.46}, {"type": "position", "time": 60331, "x": null, "y": 0.46}, {"type": "position", "time": 60382, "x": null, "y": 0.46}, {"type": "position", "time": 60434, "x": null, "y": 0.46}, {"type": "position", "time": 60483, "x": null, "y": 0.46}, {"type": "position", "time": 60530, "x": null, "y": 0.46}, {"type": "position", "time": 60580, "x": null, "y": 0.46}, {"type": "position", "time": 60630, "x": null, "y": 0.46}, {"type": "position", "time": 60684, "x": null, "y": 0.46}, {"type": "position", "time": 60733, "x": null, "y": 0.46}, {"type": "position", "time": 60782, "x": null, "y": 0.46}, {"type": "position", "time": 60830, "x": null, "y": 0.46}, {"type": "position", "time": 60881, "x": null, "y": 0.46}, {"type": "position", "time": 60930, "x": null, "y": 0.46}, {"type": "position", "time": 60980, "x": null, "y": 0.46}, {"type": "position", "time": 61030, "x": null, "y": 0.46}, {"type": "position", "time": 61080, "x": null, "y": 0.46}, {"type": "position", "time": 61130, "x": null, "y": 0.46}, {"type": "position", "time": 61183, "x": null, "y": 0.46}, {"type": "position", "time": 61230, "x": null, "y": 0.46}, {"type": "position", "time": 61280, "x": null, "y": 0.46}, {"type": "position", "time": 61334, "x": null, "y": 0.46}, {"type": "position", "time": 61380, "x": null, "y": 0.46}, {"type": "position", "time": 61431, "x": null, "y": 0.46}, {"type": "position", "time": 61485, "x": null, "y": 0.46}, {"type": "position", "time": 61531, "x": null, "y": 0.46}, {"type": "position", "time": 61580, "x": null, "y": 0.46}, {"type": "position", "time": 61630, "x": null, "y": 0.46}, {"type": "position", "time": 61682, "x": null, "y": 0.46}, {"type": "position", "time": 61732, "x": null, "y": 0.46}, {"type": "position", "time": 61781, "x": null, "y": 0.46}, {"type": "position", "time": 61833, "x": null, "y": 0.46}, {"type": "position", "time": 61880, "x": null, "y": 0.46}, {"type": "position", "time": 61933, "x": null, "y": 0.46}, {"type": "position", "time": 61984, "x": null, "y": 0.46}, {"type": "position", "time": 62033, "x": null, "y": 0.46}, {"type": "position", "time": 62080, "x": null, "y": 0.46}, {"type": "position", "time": 62130, "x": null, "y": 0.46}, {"type": "position", "time": 62181, "x": null, "y": 0.46}, {"type": "p