{"ApprovalTime": "2016-03-10T21:35:27Z", "SubmitTime": "2016-03-10T21:29:42Z", "AssignmentId": "3570Y55XZPJ4Z36H5XKRU5N8Q3BYGS", "HITId": "38G0E1M85M53D7EEUOHN21OJ7HQVU5", "answers": {"data": {"trials": [{"story": "beach", "time": 378382, "name": "Jacqueline", "rt": 17611, "blocknum": 0, "qtype": "probability", "response": 1, "trialnum": 1, "gender": "female", "qnum": 0}, {"story": "beach", "time": 378382, "name": "Jacqueline", "rt": 17611, "blocknum": 0, "qtype": "ungrammatical", "trialnum": 1, "gender": "female", "qnum": 0}, {"story": "beach", "time": 407165, "name": "Nathan", "rt": 28781, "blocknum": 0, "qtype": "explanation", "response": "he wore clothing that covered his body", "trialnum": 2, "gender": "male", "qnum": 1}, {"story": "beach", "time": 411829, "name": "Nathan", "rt": 4658, "blocknum": 0, "qtype": "probability", "response": 0.97, "trialnum": 3, "gender": "male", "qnum": 2}, {"story": "beach", "time": 411829, "name": "Nathan", "rt": 4658, "blocknum": 0, "qtype": "ungrammatical", "trialnum": 3, "gender": "male", "qnum": 2}, {"story": "beach", "time": 423413, "name": "Emily", "rt": 11581, "blocknum": 0, "qtype": "probability", "response": 0.99, "trialnum": 4, "gender": "female", "qnum": 3}, {"story": "beach", "time": 423413, "name": "Emily", "rt": 11581, "blocknum": 0, "qtype": "ungrammatical", "response": false, "trialnum": 4, "gender": "female", "qnum": 3}, {"story": "beach", "time": 432677, "name": "Paige", "rt": 9262, "blocknum": 0, "qtype": "probability", "response": 0.99, "trialnum": 5, "gender": "female", "qnum": 4}, {"story": "beach", "time": 432677, "name": "Paige", "rt": 9262, "blocknum": 0, "qtype": "ungrammatical", "response": false, "trialnum": 5, "gender": "female", "qnum": 4}, {"story": "beach", "time": 435533, "name": "Corey", "rt": 2854, "blocknum": 0, "qtype": "probability", "response": 1, "trialnum": 6, "gender": "male", "qnum": 5}, {"story": "beach", "time": 435533, "name": "Corey", "rt": 2854, "blocknum": 0, "qtype": "ungrammatical", "response": false, "trialnum": 6, "gender": "male", "qnum": 5}, {"story": "painting", "time": 441541, "name": "Mary", "rt": 6005, "blocknum": 1, "qtype": "probability", "response": 1, "trialnum": 8, "gender": "female", "qnum": 0}, {"story": "painting", "time": 441541, "name": "Mary", "rt": 6005, "blocknum": 1, "qtype": "ungrammatical", "trialnum": 8, "gender": "female", "qnum": 0}, {"story": "painting", "time": 456654, "name": "Logan", "rt": 15112, "blocknum": 1, "qtype": "explanation", "response": "He didn't wear a shirt", "trialnum": 9, "gender": "male", "qnum": 1}, {"story": "painting", "time": 459072, "name": "Logan", "rt": 2415, "blocknum": 1, "qtype": "probability", "response": 0.97, "trialnum": 10, "gender": "male", "qnum": 2}, {"story": "painting", "time": 459072, "name": "Logan", "rt": 2415, "blocknum": 1, "qtype": "ungrammatical", "trialnum": 10, "gender": "male", "qnum": 2}, {"story": "painting", "time": 460678, "name": "Alexis", "rt": 1604, "blocknum": 1, "qtype": "probability", "response": 0.96, "trialnum": 11, "gender": "female", "qnum": 3}, {"story": "painting", "time": 460678, "name": "Alexis", "rt": 1604, "blocknum": 1, "qtype": "ungrammatical", "response": false, "trialnum": 11, "gender": "female", "qnum": 3}, {"story": "painting", "time": 462014, "name": "Emma", "rt": 1334, "blocknum": 1, "qtype": "probability", "response": 0.97, "trialnum": 12, "gender": "female", "qnum": 4}, {"story": "painting", "time": 462014, "name": "Emma", "rt": 1334, "blocknum": 1, "qtype": "ungrammatical", "response": false, "trialnum": 12, "gender": "female", "qnum": 4}, {"story": "painting", "time": 463494, "name": "Michelle", "rt": 1477, "blocknum": 1, "qtype": "probability", "response": 0.96, "trialnum": 13, "gender": "female", "qnum": 5}, {"story": "painting", "time": 463494, "name": "Michelle", "rt": 1477, "blocknum": 1, "qtype": "ungrammatical", "response": false, "trialnum": 13, "gender": "female", "qnum": 5}, {"story": "cooking", "time": 468438, "name": "Greg", "rt": 4942, "blocknum": 2, "qtype": "probability", "response": 0.97, "trialnum": 15, "gender": "male", "qnum": 0}, {"story": "cooking", "time": 468438, "name": "Greg", "rt": 4942, "blocknum": 2, "qtype": "ungrammatical", "trialnum": 15, "gender": "male", "qnum": 0}, {"story": "cooking", "time": 482654, "name": "Hannah", "rt": 14215, "blocknum": 2, "qtype": "explanation", "response": "Hannah didn't talk to others", "trialnum": 16, "gender": "female", "qnum": 1}, {"story": "cooking", "time": 485262, "name": "Hannah", "rt": 2606, "blocknum": 2, "qtype": "probability", "response": 0.98, "trialnum": 17, "gender": "female", "qnum": 2}, {"story": "cooking", "time": 485262, "name": "Hannah", "rt": 2606, "blocknum": 2, "qtype": "ungrammatical", "trialnum": 17, "gender": "female", "qnum": 2}, {"story": "cooking", "time": 502174, "name": "Daniel", "rt": 16910, "blocknum": 2, "qtype": "probability", "response": 0.96, "trialnum": 18, "gender": "male", "qnum": 3}, {"story": "cooking", "time": 502174, "name": "Daniel", "rt": 16910, "blocknum": 2, "qtype": "ungrammatical", "response": false, "trialnum": 18, "gender": "male", "qnum": 3}, {"story": "cooking", "time": 505974, "name": "Rachel", "rt": 3797, "blocknum": 2, "qtype": "probability", "response": 0.96, "trialnum": 19, "gender": "female", "qnum": 4}, {"story": "cooking", "time": 505974, "name": "Rachel", "rt": 3797, "blocknum": 2, "qtype": "ungrammatical", "response": false, "trialnum": 19, "gender": "female", "qnum": 4}, {"story": "cooking", "time": 507952, "name": "Victoria", "rt": 1976, "blocknum": 2, "qtype": "probability", "response": 0.97, "trialnum": 20, "gender": "female", "qnum": 5}, {"story": "cooking", "time": 507952, "name": "Victoria", "rt": 1976, "blocknum": 2, "qtype": "ungrammatical", "response": false, "trialnum": 20, "gender": "female", "qnum": 5}, {"story": "coffee", "time": 512430, "name": "Brianna", "rt": 4475, "blocknum": 3, "qtype": "probability", "response": 0.97, "trialnum": 22, "gender": "female", "qnum": 0}, {"story": "coffee", "time": 512430, "name": "Brianna", "rt": 4475, "blocknum": 3, "qtype": "ungrammatical", "trialnum": 22, "gender": "female", "qnum": 0}, {"story": "coffee", "time": 520278, "name": "Christian", "rt": 7847, "blocknum": 3, "qtype": "explanation", "response": "He took sleeping pills", "trialnum": 23, "gender": "male", "qnum": 1}, {"story": "coffee", "time": 522934, "name": "Christian", "rt": 2654, "blocknum": 3, "qtype": "probability", "response": 0.96, "trialnum": 24, "gender": "male", "qnum": 2}, {"story": "coffee", "time": 522934, "name": "Christian", "rt": 2654, "blocknum": 3, "qtype": "ungrammatical", "trialnum": 24, "gender": "male", "qnum": 2}, {"story": "coffee", "time": 525246, "name": "Kelly", "rt": 2310, "blocknum": 3, "qtype": "probability", "response": 0.97, "trialnum": 25, "gender": "female", "qnum": 3}, {"story": "coffee", "time": 525246, "name": "Kelly", "rt": 2310, "blocknum": 3, "qtype": "ungrammatical", "response": false, "trialnum": 25, "gender": "female", "qnum": 3}, {"story": "coffee", "time": 526472, "name": "Kristen", "rt": 1225, "blocknum": 3, "qtype": "probability", "response": 0.97, "trialnum": 26, "gender": "female", "qnum": 4}, {"story": "coffee", "time": 526472, "name": "Kristen", "rt": 1225, "blocknum": 3, "qtype": "ungrammatical", "response": false, "trialnum": 26, "gender": "female", "qnum": 4}, {"story": "coffee", "time": 528134, "name": "Marissa", "rt": 1661, "blocknum": 3, "qtype": "probability", "response": 0.96, "trialnum": 27, "gender": "female", "qnum": 5}, {"story": "coffee", "time": 528134, "name": "Marissa", "rt": 1661, "blocknum": 3, "qtype": "ungrammatical", "response": false, "trialnum": 27, "gender": "female", "qnum": 5}, {"story": "insomnia", "time": 536286, "name": "Destiny", "rt": 8150, "blocknum": 4, "qtype": "probability", "response": 0.95, "trialnum": 29, "gender": "female", "qnum": 0}, {"story": "insomnia", "time": 536286, "name": "Destiny", "rt": 8150, "blocknum": 4, "qtype": "ungrammatical", "trialnum": 29, "gender": "female", "qnum": 0}, {"story": "insomnia", "time": 550638, "name": "Jose", "rt": 14351, "blocknum": 4, "qtype": "explanation", "response": "Jose also took sleeping pills", "trialnum": 30, "gender": "male", "qnum": 1}, {"story": "insomnia", "time": 553486, "name": "Jose", "rt": 2845, "blocknum": 4, "qtype": "probability", "response": 0.95, "trialnum": 31, "gender": "male", "qnum": 2}, {"story": "insomnia", "time": 553486, "name": "Jose", "rt": 2845, "blocknum": 4, "qtype": "ungrammatical", "trialnum": 31, "gender": "male", "qnum": 2}, {"story": "insomnia", "time": 554918, "name": "Brittany", "rt": 1430, "blocknum": 4, "qtype": "probability", "response": 0.93, "trialnum": 32, "gender": "female", "qnum": 3}, {"story": "insomnia", "time": 554918, "name": "Brittany", "rt": 1430, "blocknum": 4, "qtype": "ungrammatical", "response": false, "trialnum": 32, "gender": "female", "qnum": 3}, {"story": "insomnia", "time": 556502, "name": "Kenneth", "rt": 1582, "blocknum": 4, "qtype": "probability", "response": 0.97, "trialnum": 33, "gender": "male", "qnum": 4}, {"story": "insomnia", "time": 556502, "name": "Kenneth", "rt": 1582, "blocknum": 4, "qtype": "ungrammatical", "response": false, "trialnum": 33, "gender": "male", "qnum": 4}, {"story": "insomnia", "time": 557854, "name": "Paul", "rt": 1350, "blocknum": 4, "qtype": "probability", "response": 0.97, "trialnum": 34, "gender": "male", "qnum": 5}, {"story": "insomnia", "time": 557854, "name": "Paul", "rt": 1350, "blocknum": 4, "qtype": "ungrammatical", "response": false, "trialnum": 34, "gender": "male", "qnum": 5}, {"story": "Japan", "time": 563782, "name": "Christopher", "rt": 5926, "blocknum": 5, "qtype": "probability", "response": 0.96, "trialnum": 36, "gender": "male", "qnum": 0}, {"story": "Japan", "time": 563782, "name": "Christopher", "rt": 5926, "blocknum": 5, "qtype": "ungrammatical", "trialnum": 36, "gender": "male", "qnum": 0}, {"story": "Japan", "time": 599408, "name": "Abigail", "rt": 35625, "blocknum": 5, "qtype": "explanation", "response": "She is from japan and she is in US for a business trip", "trialnum": 37, "gender": "female", "qnum": 1}, {"story": "Japan", "time": 602726, "name": "Abigail", "rt": 3308, "blocknum": 5, "qtype": "probability", "response": 0.95, "trialnum": 38, "gender": "female", "qnum": 2}, {"story": "Japan", "time": 602726, "name": "Abigail", "rt": 3308, "blocknum": 5, "qtype": "ungrammatical", "trialnum": 38, "gender": "female", "qnum": 2}, {"story": "Japan", "time": 606238, "name": "Heather", "rt": 3509, "blocknum": 5, "qtype": "probability", "response": 0.96, "trialnum": 39, "gender": "female", "qnum": 3}, {"story": "Japan", "time": 606238, "name": "Heather", "rt": 3509, "blocknum": 5, "qtype": "ungrammatical", "response": false, "trialnum": 39, "gender": "female", "qnum": 3}, {"story": "Japan", "time": 607582, "name": "Katie", "rt": 1342, "blocknum": 5, "qtype": "probability", "response": 0.96, "trialnum": 40, "gender": "female", "qnum": 4}, {"story": "Japan", "time": 607582, "name": "Katie", "rt": 1342, "blocknum": 5, "qtype": "ungrammatical", "response": false, "trialnum": 40, "gender": "female", "qnum": 4}, {"story": "Japan", "time": 609921, "name": "Ethan", "rt": 2337, "blocknum": 5, "qtype": "probability", "response": 0.96, "trialnum": 41, "gender": "male", "qnum": 5}, {"story": "Japan", "time": 609921, "name": "Ethan", "rt": 2337, "blocknum": 5, "qtype": "ungrammatical", "response": false, "trialnum": 41, "gender": "male", "qnum": 5}, {"story": "reading", "time": 617582, "name": "Kyle", "rt": 7656, "blocknum": 6, "qtype": "probability", "response": 0.97, "trialnum": 43, "gender": "male", "qnum": 0}, {"story": "reading", "time": 617582, "name": "Kyle", "rt": 7656, "blocknum": 6, "qtype": "ungrammatical", "trialnum": 43, "gender": "male", "qnum": 0}, {"story": "reading", "time": 631741, "name": "Morgan", "rt": 14158, "blocknum": 6, "qtype": "explanation", "response": "She already knew all the words", "trialnum": 44, "gender": "female", "qnum": 1}, {"story": "reading", "time": 633701, "name": "Morgan", "rt": 1958, "blocknum": 6, "qtype": "probability", "response": 0.95, "trialnum": 45, "gender": "female", "qnum": 2}, {"story": "reading", "time": 633701, "name": "Morgan", "rt": 1958, "blocknum": 6, "qtype": "ungrammatical", "trialnum": 45, "gender": "female", "qnum": 2}, {"story": "reading", "time": 636933, "name": "Travis", "rt": 3230, "blocknum": 6, "qtype": "probability", "response": 0.94, "trialnum": 46, "gender": "male", "qnum": 3}, {"story": "reading", "time": 636933, "name": "Travis", "rt": 3230, "blocknum": 6, "qtype": "ungrammatical", "response": false, "trialnum": 46, "gender": "male", "qnum": 3}, {"story": "reading", "time": 638341, "name": "Dylan", "rt": 1406, "blocknum": 6, "qtype": "probability", "response": 0.95, "trialnum": 47, "gender": "male", "qnum": 4}, {"story": "reading", "time": 638341, "name": "Dylan", "rt": 1406, "blocknum": 6, "qtype": "ungrammatical", "response": false, "trialnum": 47, "gender": "male", "qnum": 4}, {"story": "reading", "time": 639501, "name": "Lindsey", "rt": 1158, "blocknum": 6, "qtype": "probability", "response": 0.96, "trialnum": 48, "gender": "female", "qnum": 5}, {"story": "reading", "time": 639501, "name": "Lindsey", "rt": 1158, "blocknum": 6, "qtype": "ungrammatical", "response": false, "trialnum": 48, "gender": "female", "qnum": 5}, {"story": "fitness", "time": 643485, "name": "Jeff", "rt": 3982, "blocknum": 7, "qtype": "probability", "response": 0.97, "trialnum": 50, "gender": "male", "qnum": 0}, {"story": "fitness", "time": 643485, "name": "Jeff", "rt": 3982, "blocknum": 7, "qtype": "ungrammatical", "trialnum": 50, "gender": "male", "qnum": 0}, {"story": "fitness", "time": 670286, "name": "Evan", "rt": 26799, "blocknum": 7, "qtype": "explanation", "response": "He ate a lot of food", "trialnum": 51, "gender": "male", "qnum": 1}, {"story": "fitness", "time": 693909, "name": "Evan", "rt": 23613, "blocknum": 7, "qtype": "probability", "response": 0.95, "trialnum": 52, "gender": "male", "qnum": 2}, {"story": "fitness", "time": 693909, "name": "Evan", "rt": 23613, "blocknum": 7, "qtype": "ungrammatical", "trialnum": 52, "gender": "male", "qnum": 2}, {"story": "fitness", "time": 700901, "name": "Patrick", "rt": 6988, "blocknum": 7, "qtype": "probability", "response": 0.5, "trialnum": 53, "gender": "male", "qnum": 3}, {"story": "fitness", "time": 700901, "name": "Patrick", "rt": 6988, "blocknum": 7, "qtype": "ungrammatical", "response": false, "trialnum": 53, "gender": "male", "qnum": 3}, {"story": "fitness", "time": 702626, "name": "Erica", "rt": 1722, "blocknum": 7, "qtype": "probability", "response": 0.46, "trialnum": 54, "gender": "female", "qnum": 4}, {"story": "fitness", "time": 702626, "name": "Erica", "rt": 1722, "blocknum": 7, "qtype": "ungrammatical", "response": false, "trialnum": 54, "gender": "female", "qnum": 4}, {"story": "fitness", "time": 706727, "name": "Rick", "rt": 4097, "blocknum": 7, "qtype": "probability", "response": 0.5, "trialnum": 55, "gender": "male", "qnum": 5}, {"story": "fitness", "time": 706727, "name": "Rick", "rt": 4097, "blocknum": 7, "qtype": "ungrammatical", "response": false, "trialnum": 55, "gender": "male", "qnum": 5}, {"story": "guitar", "time": 722133, "name": "Ashley", "rt": 15403, "blocknum": 8, "qtype": "probability", "response": 0.97, "trialnum": 57, "gender": "female", "qnum": 0}, {"story": "guitar", "time": 722133, "name": "Ashley", "rt": 15403, "blocknum": 8, "qtype": "ungrammatical", "trialnum": 57, "gender": "female", "qnum": 0}, {"story": "guitar", "time": 735045, "name": "Crystal", "rt": 12911, "blocknum": 8, "qtype": "explanation", "response": "She doesn't know music theory", "trialnum": 58, "gender": "female", "qnum": 1}, {"story": "guitar", "time": 737125, "name": "Crystal", "rt": 2077, "blocknum": 8, "qtype": "probability", "response": 0.97, "trialnum": 59, "gender": "female", "qnum": 2}, {"story": "guitar", "time": 737125, "name": "Crystal", "rt": 2077, "blocknum": 8, "qtype": "ungrammatical", "trialnum": 59, "gender": "female", "qnum": 2}, {"story": "guitar", "time": 739597, "name": "Kayla", "rt": 2470, "blocknum": 8, "qtype": "probability", "response": 0.97, "trialnum": 60, "gender": "female", "qnum": 3}, {"story": "guitar", "time": 739597, "name": "Kayla", "rt": 2470, "blocknum": 8, "qtype": "ungrammatical", "response": false, "trialnum": 60, "gender": "female", "qnum": 3}, {"story": "guitar", "time": 741301, "name": "Savannah", "rt": 1702, "blocknum": 8, "qtype": "probability", "response": 0.95, "trialnum": 61, "gender": "female", "qnum": 4}, {"story": "guitar", "time": 741301, "name": "Savannah", "rt": 1702, "blocknum": 8, "qtype": "ungrammatical", "response": false, "trialnum": 61, "gender": "female", "qnum": 4}, {"story": "guitar", "time": 743357, "name": "John", "rt": 2054, "blocknum": 8, "qtype": "probability", "response": 0.93, "trialnum": 62, "gender": "male", "qnum": 5}, {"story": "guitar", "time": 743357, "name": "John", "rt": 2054, "blocknum": 8, "qtype": "ungrammatical", "response": false, "trialnum": 62, "gender": "male", "qnum": 5}], "events": [{"type": "position", "time": 56, "x": 0, "y": 0}, {"type": "position", "time": 106, "x": 0, "y": 0}, {"type": "position", "time": 156, "x": 0, "y": 0}, {"type": "position", "time": 206, "x": 0, "y": 0}, {"type": "position", "time": 256, "x": 0, "y": 0}, {"type": "position", "time": 306, "x": 0, "y": 0}, {"type": "position", "time": 355, "x": 0, "y": 0}, {"type": "position", "time": 406, "x": 0, "y": 0}, {"type": "position", "time": 456, "x": 0, "y": 0}, {"type": "position", "time": 866, "x": 0, "y": 0}, {"type": "position", "time": 1867, "x": 0, "y": 0}, {"type": "position", "time": 2877, "x": 0, "y": 0}, {"type": "position", "time": 3866, "x": 0, "y": 0}, {"type": "position", "time": 4774, "x": 0, "y": 0}, {"type": "position", "time": 4805, "x": 0, "y": 0}, {"type": "position", "time": 4855, "x": 0, "y": 0}, {"type": "position", "time": 4906, "x": 0, "y": 0}, {"type": "position", "time": 4955, "x": 0, "y": 0}, {"type": "position", "time": 5005, "x": 0, "y": 0}, {"type": "position", "time": 5055, "x": 0, "y": 0}, {"type": "position", "time": 5106, "x": 0, "y": 0}, {"type": "position", "time": 5155, "x": 0, "y": 0}, {"type": "position", "time": 5206, "x": 0, "y": 0}, {"type": "position", "time": 5256, "x": 0, "y": 0}, {"type": "position", "time": 5305, "x": 0, "y": 0}, {"type": "position", "time": 5355, "x": 0, "y": 0}, {"type": "position", "time": 5405, "x": 0, "y": 0}, {"type": "position", "time": 5456, "x": 0, "y": 0}, {"type": "position", "time": 5511, "x": 0, "y": 0}, {"type": "position", "time": 5555, "x": 0, "y": 0}, {"type": "position", "time": 5606, "x": 0, "y": 0}, {"type": "position", "time": 5655, "x": 0, "y": 0}, {"type": "position", "time": 5705, "x": 0, "y": 0}, {"type": "position", "time": 5755, "x": 0, "y": 0}, {"type": "position", "time": 5806, "x": 0, "y": 0}, {"type": "position", "time": 5855, "x": 0, "y": 0}, {"type": "position", "time": 5905, "x": 0, "y": 0}, {"type": "position", "time": 5955, "x": 0, "y": 0}, {"type": "position", "time": 6006, "x": 0, "y": 0}, {"type": "position", "time": 6055, "x": 0, "y": 0}, {"type": "position", "time": 6105, "x": 0, "y": 0}, {"type": "position", "time": 6168, "x": 0, "y": 0}, {"type": "position", "time": 6206, "x": 0, "y": 0}, {"type": "position", "time": 6256, "x": 0, "y": 0}, {"type": "position", "time": 6305, "x": 0, "y": 0}, {"type": "position", "time": 6355, "x": 0, "y": 0}, {"type": "position", "time": 6406, "x": 0, "y": 0}, {"type": "position", "time": 6455, "x": 0, "y": 0}, {"type": "position", "time": 6505, "x": 0, "y": 0}, {"type": "position", "time": 6570, "x": 0, "y": 0}, {"type": "position", "time": 6606, "x": 0, "y": 0}, {"type": "position", "time": 6664, "x": 0, "y": 0}, {"type": "position", "time": 6705, "x": 0, "y": 0}, {"type": "position", "time": 6755, "x": 0, "y": 0}, {"type": "position", "time": 6805, "x": 0, "y": 0}, {"type": "position", "time": 6855, "x": 0, "y": 0}, {"type": "position", "time": 6905, "x": 0, "y": 0}, {"type": "position", "time": 7868, "x": 0, "y": 0}, {"type": "position", "time": 7928, "x": 0, "y": 0}, {"type": "position", "time": 7955, "x": 0, "y": 0}, {"type": "position", "time": 8005, "x": 0, "y": 0}, {"type": "position", "time": 8055, "x": 0, "y": 0}, {"type": "position", "time": 8105, "x": 0, "y": 0}, {"type": "position", "time": 8156, "x": 0, "y": 0}, {"type": "position", "time": 8206, "x": 0, "y": 0}, {"type": "position", "time": 8268, "x": 0, "y": 0}, {"type": "position", "time": 8305, "x": 0, "y": 0}, {"type": "position", "time": 8355, "x": 0, "y": 0}, {"type": "position", "time": 8405, "x": 0, "y": 0}, {"type": "position", "time": 8455, "x": 0, "y": 0}, {"type": "position", "time": 8505, "x": 0, "y": 0}, {"type": "position", "time": 8555, "x": 0, "y": 0}, {"type": "position", "time": 8605, "x": 0, "y": 0}, {"type": "position", "time": 8655, "x": 0, "y": 0}, {"type": "position", "time": 8866, "x": 0, "y": 0}, {"type": "position", "time": 9866, "x": 0, "y": 0}, {"type": "position", "time": 10866, "x": 0, "y": 0}, {"type": "position", "time": 11870, "x": 0, "y": 0}, {"type": "position", "time": 12868, "x": 0, "y": 0}, {"type": "position", "time": 13971, "x": 0, "y": 0}, {"type": "position", "time": 14866, "x": 0, "y": 0}, {"type": "position", "time": 15873, "x": 0, "y": 0}, {"type": "position", "time": 16866, "x": 0, "y": 0}, {"type": "position", "time": 17871, "x": 0, "y": 0}, {"type": "position", "time": 18865, "x": 0, "y": 0}, {"type": "position", "time": 19876, "x": 0, "y": 0}, {"type": "position", "time": 20870, "x": 0, "y": 0}, {"type": "position", "time": 21875, "x": 0, "y": 0}, {"type": "position", "time": 22877, "x": 0, "y": 0}, {"type": "position", "time": 23866, "x": 0, "y": 0}, {"type": "position", "time": 24866, "x": 0, "y": 0}, {"type": "position", "time": 25868, "x": 0, "y": 0}, {"type": "position", "time": 26867, "x": 0, "y": 0}, {"type": "position", "time": 27867, "x": 0, "y": 0}, {"type": "position", "time": 28868, "x": 0, "y": 0}, {"type": "position", "time": 29880, "x": 0, "y": 0}, {"type": "position", "time": 30864, "x": 0, "y": 0}, {"type": "position", "time": 31868, "x": 0, "y": 0}, {"type": "position", "time": 33182, "x": 0, "y": 0}, {"type": "position", "time": 33868, "x": 0, "y": 0}, {"type": "position", "time": 34882, "x": 0, "y": 0}, {"type": "position", "time": 35870, "x": 0, "y": 0}, {"type": "position", "time": 36867, "x": 0, "y": 0}, {"type": "position", "time": 37869, "x": 0, "y": 0}, {"type": "position", "time": 38871, "x": 0, "y": 0}, {"type": "position", "time": 39869, "x": 0, "y": 0}, {"type": "position", "time": 40863, "x": 0, "y": 0}, {"type": "position", "time": 41866, "x": 0, "y": 0}, {"type": "position", "time": 42957, "x": 0, "y": 0}, {"type": "position", "time": 43867, "x": 0, "y": 0}, {"type": "position", "time": 44869, "x": 0, "y": 0}, {"type": "position", "time": 45868, "x": 0, "y": 0}, {"type": "position", "time": 46867, "x": 0, "y": 0}, {"type": "position", "time": 47867, "x": 0, "y": 0}, {"type": "position", "time": 48878, "x": 0, "y": 0}, {"type": "position", "time": 49875, "x": 0, "y": 0}, {"type": "position", "time": 50869, "x": 0, "y": 0}, {"type": "position", "time": 51870, "x": 0, "y": 0}, {"type": "position", "time": 52867, "x": 0, "y": 0}, {"type": "position", "time": 53869, "x": 0, "y": 0}, {"type": "position", "time": 54868, "x": 0, "y": 0}, {"type": "position", "time": 55933, "x": 0, "y": 0}, {"type": "position", "time": 56867, "x": 0, "y": 0}, {"type": "position", "time": 57867, "x": 0, "y": 0}, {"type": "position", "time": 58867, "x": 0, "y": 0}, {"type": "position", "time": 59867, "x": 0, "y": 0}, {"type": "position", "time": 60867, "x": 0, "y": 0}, {"type": "position", "time": 61869, "x": 0, "y": 0}, {"type": "position", "time": 62913, "x": 0, "y": 0}, {"type": "position", "time": 63867, "x": 0, "y": 0}, {"type": "position", "time": 64874, "x": 0, "y": 0}, {"type": "position", "time": 65870, "x": 0, "y": 0}, {"type": "position", "time": 66867, "x": 0, "y": 0}, {"type": "position", "time": 67876, "x": 0, "y": 0}, {"type": "position", "time": 68874, "x": 0, "y": 0}, {"type": "position", "time": 69868, "x": 0, "y": 0}, {"type": "position", "time": 70872, "x": 0, "y": 0}, {"type": "position", "time": 71867, "x": 0, "y": 0}, {"type": "position", "time": 72877, "x": 0, "y": 0}, {"type": "position", "time": 73880, "x": 0, "y": 0}, {"type": "position", "time": 74876, "x": 0, "y": 0}, {"type": "position", "time": 75881, "x": 0, "y": 0}, {"type": "position", "time": 76879, "x": 0, "y": 0}, {"type": "position", "time": 77879, "x": 0, "y": 0}, {"type": "position", "time": 78881, "x": 0, "y": 0}, {"type": "position", "time": 79871, "x": 0, "y": 0}, {"type": "position", "time": 80866, "x": 0, "y": 0}, {"type": "position", "time": 81867, "x": 0, "y": 0}, {"type": "position", "time": 82874, "x": 0, "y": 0}, {"type": "position", "time": 83866, "x": 0, "y": 0}, {"type": "position", "time": 84873, "x": 0, "y": 0}, {"type": "position", "time": 85857, "x": 0, "y": 0}, {"type": "position", "time": 86867, "x": 0, "y": 0}, {"type": "position", "time": 87899, "x": 0, "y": 0}, {"type": "position", "time": 88859, "x": 0, "y": 0}, {"type": "position", "time": 89867, "x": 0, "y": 0}, {"type": "position", "time": 90867, "x": 0, "y": 0}, {"type": "position", "time": 91877, "x": 0, "y": 0}, {"type": "position", "time": 92878, "x": 0, "y": 0}, {"type": "position", "time": 93869, "x": 0, "y": 0}, {"type": "position", "time": 94867, "x": 0, "y": 0}, {"type": "position", "time": 95867, "x": 0, "y": 0}, {"type": "position", "time": 96880, "x": 0, "y": 0}, {"type": "position", "time": 97881, "x": 0, "y": 0}, {"type": "position", "time": 98866, "x": 0, "y": 0}, {"type": "position", "time": 99873, "x": 0, "y": 0}, {"type": "position", "time": 100871, "x": 0, "y": 0}, {"type": "position", "time": 102226, "x": 0, "y": 0}, {"type": "position", "time": 102867, "x": 0, "y": 0}, {"type": "position", "time": 103867, "x": 0, "y": 0}, {"type": "position", "time": 104867, "x": 0, "y": 0}, {"type": "position", "time": 105868, "x": 0, "y": 0}, {"type": "position", "time": 106867, "x": 0, "y": 0}, {"type": "position", "time": 107895, "x": 0, "y": 0}, {"type": "position", "time": 108866, "x": 0, "y": 0}, {"type": "position", "time": 109867, "x": 0, "y": 0}, {"type": "position", "time": 110867, "x": 0, "y": 0}, {"type": "position", "time": 112155, "x": 0, "y": 0}, {"type": "position", "time": 112866, "x": 0, "y": 0}, {"type": "position", "time": 113867, "x": 0, "y": 0}, {"type": "position", "time": 114868, "x": 0, "y": 0}, {"type": "position", "time": 115867, "x": 0, "y": 0}, {"type": "position", "time": 116867, "x": 0, "y": 0}, {"type": "position", "time": 117867, "x": 0, "y": 0}, {"type": "position", "time": 118868, "x": 0, "y": 0}, {"type": "position", "time": 119867, "x": 0, "y": 0}, {"type": "position", "time": 120867, "x": 0, "y": 0}, {"type": "position", "time": 122121, "x": 0, "y": 0}, {"type": "position", "time": 122867, "x": 0, "y": 0}, {"type": "position", "time": 123867, "x": 0, "y": 0}, {"type": "position", "time": 124867, "x": 0, "y": 0}, {"type": "position", "time": 125867, "x": 0, "y": 0}, {"type": "position", "time": 126870, "x": 0, "y": 0}, {"type": "position", "time": 127867, "x": 0, "y": 0}, {"type": "position", "time": 128868, "x": 0, "y": 0}, {"type": "position", "time": 129866, "x": 0, "y": 0}, {"type": "position", "time": 130868, "x": 0, "y": 0}, {"type": "position", "time": 131866, "x": 0, "y": 0}, {"type": "position", "time": 132867, "x": 0, "y": 0}, {"type": "position", "time": 133867, "x": 0, "y": 0}, {"type": "position", "time": 134868, "x": 0, "y": 0}, {"type": "position", "time": 135867, "x": 0, "y": 0}, {"type": "position", "time": 136867, "x": 0, "y": 0}, {"type": "position", "time": 137868, "x": 0, "y": 0}, {"type": "position", "time": 138868, "x": 0, "y": 0}, {"type": "position", "time": 139868, "x": 0, "y": 0}, {"type": "position", "time": 140867, "x": 0, "y": 0}, {"type": "position", "time": 141965, "x": 0, "y": 0}, {"type": "position", "time": 142867, "x": 0, "y": 0}, {"type": "position", "time": 143872, "x": 0, "y": 0}, {"type": "position", "time": 144867, "x": 0, "y": 0}, {"type": "position", "time": 145867, "x": 0, "y": 0}, {"type": "position", "time": 146867, "x": 0, "y": 0}, {"type": "position", "time": 147867, "x": 0, "y": 0}, {"type": "position", "time": 148867, "x": 0, "y": 0}, {"type": "position", "time": 149867, "x": 0, "y": 0}, {"type": "position", "time": 150868, "x": 0, "y": 0}, {"type": "position", "time": 152022, "x": 0, "y": 0}, {"type": "position", "time": 152868, "x": 0, "y": 0}, {"type": "position", "time": 153868, "x": 0, "y": 0}, {"type": "position", "time": 154868, "x": 0, "y": 0}, {"type": "position", "time": 155868, "x": 0, "y": 0}, {"type": "position", "time": 156868, "x": 0, "y": 0}, {"type": "position", "time": 157868, "x": 0, "y": 0}, {"type": "position", "time": 158867, "x": 0, "y": 0}, {"type": "position", "time": 159868, "x": 0, "y": 0}, {"type": "position", "time": 160868, "x": 0, "y": 0}, {"type": "position", "time": 161867, "x": 0, "y": 0}, {"type": "position", "time": 162868, "x": 0, "y": 0}, {"type": "position", "time": 163868, "x": 0, "y": 0}, {"type": "position", "time": 164868, "x": 0, "y": 0}, {"type": "position", "time": 165867, "x": 0, "y": 0}, {"type": "position", "time": 166867, "x": 0, "y": 0}, {"type": "position", "time": 167867, "x": 0, "y": 0}, {"type": "position", "time": 168867, "x": 0, "y": 0}, {"type": "position", "time": 169907, "x": 0, "y": 0}, {"type": "position", "time": 170866, "x": 0, "y": 0}, {"type": "position", "time": 171868, "x": 0, "y": 0}, {"type": "position", "time": 172867, "x": 0, "y": 0}, {"type": "position", "time": 173869, "x": 0, "y": 0}, {"type": "position", "time": 174868, "x": 0, "y": 0}, {"type": "position", "time": 175867, "x": 0, "y": 0}, {"type": "position", "time": 176867, "x": 0, "y": 0}, {"type": "position", "time": 177867, "x": 0, "y": 0}, {"type": "position", "time": 178867, "x": 0, "y": 0}, {"type": "position", "time": 179867, "x": 0, "y": 0}, {"type": "position", "time": 181156, "x": 0, "y": 0}, {"type": "position", "time": 181867, "x": 0, "y": 0}, {"type": "position", "time": 182867, "x": 0, "y": 0}, {"type": "position", "time": 183870, "x": 0, "y": 0}, {"type": "position", "time": 184875, "x": 0, "y": 0}, {"type": "position", "time": 185866, "x": 0, "y": 0}, {"type": "position", "time": 186867, "x": 0, "y": 0}, {"type": "position", "time": 187869, "x": 0, "y": 0}, {"type": "position", "time": 188867, "x": 0, "y": 0}, {"type": "position", "time": 189853, "x": 0, "y": 0}, {"type": "position", "time": 190867, "x": 0, "y": 0}, {"type": "position", "time": 191867, "x": 0, "y": 0}, {"type": "position", "time": 192868, "x": 0, "y": 0}, {"type": "position", "time": 193867, "x": 0, "y": 0}, {"type": "position", "time": 194867, "x": 0, "y": 0}, {"type": "position", "time": 195878, "x": 0, "y": 0}, {"type": "position", "time": 196858, "x": 0, "y": 0}, {"type": "position", "time": 197868, "x": 0, "y": 0}, {"type": "position", "time": 198868, "x": 0, "y": 0}, {"type": "position", "time": 199869, "x": 0, "y": 0}, {"type": "position", "time": 200868, "x": 0, "y": 0}, {"type": "position", "time": 201872, "x": 0, "y": 0}, {"type": "position", "time": 202866, "x": 0, "y": 0}, {"type": "position", "time": 203867, "x": 0, "y": 0}, {"type": "position", "time": 204867, "x": 0, "y": 0}, {"type": "position", "time": 205876, "x": 0, "y": 0}, {"type": "position", "time": 206866, "x": 0, "y": 0}, {"type": "position", "time": 207867, "x": 0, "y": 0}, {"type": "position", "time": 208867, "x": 0, "y": 0}, {"type": "position", "time": 210123, "x": 0, "y": 0}, {"type": "position", "time": 210868, "x": 0, "y": 0}, {"type": "position", "time": 211868, "x": 0, "y": 0}, {"type": "position", "time": 212867, "x": 0, "y": 0}, {"type": "position", "time": 213880, "x": 0, "y": 0}, {"type": "position", "time": 214866, "x": 0, "y": 0}, {"type": "position", "time": 215881, "x": 0, "y": 0}, {"type": "position", "time": 216866, "x": 0, "y": 0}, {"type": "position", "time": 217867, "x": 0, "y": 0}, {"type": "position", "time": 218869, "x": 0, "y": 0}, {"type": "position", "time": 219871, "x": 0, "y": 0}, {"type": "position", "time": 220884, "x": 0, "y": 0}, {"type": "position", "time": 221862, "x": 0, "y": 0}, {"type": "position", "time": 222866, "x": 0, "y": 0}, {"type": "position", "time": 223868, "x": 0, "y": 0}, {"type": "position", "time": 224867, "x": 0, "y": 0}, {"type": "position", "time": 225868, "x": 0, "y": 0}, {"type": "position", "time": 226867, "x": 0, "y": 0}, {"type": "position", "time": 227868, "x": 0, "y": 0}, {"type": "position", "time": 228866, "x": 0, "y": 0}, {"type": "position", "time": 229868, "x": 0, "y": 0}, {"type": "position", "time": 230867, "x": 0, "y": 0}, {"type": "position", "time": 231877, "x": 0, "y": 0}, {"type": "position", "time": 232870, "x": 0, "y": 0}, {"type": "position", "time": 233879, "x": 0, "y": 0}, {"type": "position", "time": 234866, "x": 0, "y": 0}, {"type": "position", "time": 235868, "x": 0, "y": 0}, {"type": "position", "time": 236904, "x": 0, "y": 0}, {"type": "position", "time": 237888, "x": 0, "y": 0}, {"type": "position", "time": 238900, "x": 0, "y": 0}, {"type": "position", "time": 239863, "x": 0, "y": 0}, {"type": "position", "time": 240864, "x": 0, "y": 0}, {"type": "position", "time": 241867, "x": 0, "y": 0}, {"type": "position", "time": 242867, "x": 0, "y": 0}, {"type": "position", "time": 243868, "x": 0, "y": 0}, {"type": "position", "time": 244867, "x": 0, "y": 0}, {"type": "position", "time": 245870, "x": 0, "y": 0}, {"type": "position", "time": 246868, "x": 0, "y": 0}, {"type": "position", "time": 247867, "x": 0, "y": 0}, {"type": "position", "time": 248867, "x": 0, "y": 0}, {"type": "position", "time": 249868, "x": 0, "y": 0}, {"type": "position", "time": 250867, "x": 0, "y": 0}, {"type": "position", "time": 251876, "x": 0, "y": 0}, {"type": "position", "time": 252866, "x": 0, "y": 0}, {"type": "position", "time": 253868, "x": 0, "y": 0}, {"type": "position", "time": 254868, "x": 0, "y": 0}, {"type": "position", "time": 255867, "x": 0, "y": 0}, {"type": "position", "time": 256872, "x": 0, "y": 0}, {"type": "position", "time": 257867, "x": 0, "y": 0}, {"type": "position", "time": 258879, "x": 0, "y": 0}, {"type": "position", "time": 259877, "x": 0, "y": 0}, {"type": "position", "time": 260874, "x": 0, "y": 0}, {"type": "position", "time": 261881, "x": 0, "y": 0}, {"type": "position", "time": 262868, "x": 0, "y": 0}, {"type": "position", "time": 263876, "x": 0, "y": 0}, {"type": "position", "time": 264866, "x": 0, "y": 0}, {"type": "position", "time": 265877, "x": 0, "y": 0}, {"type": "position", "time": 266887, "x": 0, "y": 0}, {"type": "position", "time": 267866, "x": 0, "y": 0}, {"type": "position", "time": 268879, "x": 0, "y": 0}, {"type": "position", "time": 269878, "x": 0, "y": 0}, {"type": "position", "time": 270868, "x": 0, "y": 0}, {"type": "position", "time": 271867, "x": 0, "y": 0}, {"type": "position", "time": 272868, "x": 0, "y": 0}, {"type": "position", "time": 273866, "x": 0, "y": 0}, {"type": "position", "time": 274867, "x": 0, "y": 0}, {"type": "position", "time": 275865, "x": 0, "y": 0}, {"type": "position", "time": 276866, "x": 0, "y": 0}, {"type": "position", "time": 277867, "x": 0, "y": 0}, {"type": "position", "time": 279089, "x": 0, "y": 0}, {"type": "position", "time": 279866, "x": 0, "y": 0}, {"type": "position", "time": 280868, "x": 0, "y": 0}, {"type": "position", "time": 281866, "x": 0, "y": 0}, {"type": "position", "time": 282867, "x": 0, "y": 0}, {"type": "position", "time": 283868, "x": 0, "y": 0}, {"type": "position", "time": 284868, "x": 0, "y": 0}, {"type": "position", "time": 285868, "x": 0, "y": 0}, {"type": "position", "time": 287016, "x": 0, "y": 0}, {"type": "position", "time": 287857, "x": 0, "y": 0}, {"type": "position", "time": 288868, "x": 0, "y": 0}, {"type": "position", "time": 289868, "x": 0, "y": 0}, {"type": "position", "time": 290867, "x": 0, "y": 0}, {"type": "position", "time": 291867, "x": 0, "y": 0}, {"type": "position", "time": 292877, "x": 0, "y": 0}, {"type": "position", "time": 293874, "x": 0, "y": 0}, {"type": "position", "time": 294880, "x": 0, "y": 0}, {"type": "position", "time": 295867, "x": 0, "y": 0}, {"type": "position", "time": 296867, "x": 0, "y": 0}, {"type": "position", "time": 297868, "x": 0, "y": 0}, {"type": "position", "time": 298868, "x": 0, "y": 0}, {"type": "position", "time": 299868, "x": 0, "y": 0}, {"type": "position", "time": 300868, "x": 0, "y": 0}, {"type": "position", "time": 301868, "x": 0, "y": 0}, {"type": "position", "time": 302867, "x": 0, "y": 0}, {"type": "position", "time": 303867, "x": 0, "y": 0}, {"type": "position", "time": 304867, "x": 0, "y": 0}, {"type": "position", "time": 305867, "x": 0, "y": 0}, {"type": "position", "time": 306880, "x": 0, "y": 0}, {"type": "position", "time": 307903, "x": 0, "y": 0}, {"type": "position", "time": 308869, "x": 0, "y": 0}, {"type": "position", "time": 309870, "x": 0, "y": 0}, {"type": "position", "time": 310872, "x": 0, "y": 0}, {"type": "position", "time": 311867, "x": 0, "y": 0}, {"type": "position", "time": 312867, "x": 0, "y": 0}, {"type": "position", "time": 313866, "x": 0, "y": 0}, {"type": "position", "time": 314866, "x": 0, "y": 0}, {"type": "position", "time": 315877, "x": 0, "y": 0}, {"type": "position", "time": 316866, "x": 0, "y": 0}, {"type": "position", "time": 318004, "x": 0, "y": 0}, {"type": "position", "time": 318863, "x": 0, "y": 0}, {"type": "position", "time": 319867, "x": 0, "y": 0}, {"type": "position", "time": 320867, "x": 0, "y": 0}, {"type": "position", "time": 321867, "x": 0, "y": 0}, {"type": "position", "time": 322867, "x": 0, "y": 0}, {"type": "position", "time": 323876, "x": 0, "y": 0}, {"type": "position", "time": 324869, "x": 0, "y": 0}, {"type": "position", "time": 325877, "x": 0, "y": 0}, {"type": "position", "time": 326876, "x": 0, "y": 0}, {"type": "position", "time": 327878, "x": 0, "y": 0}, {"type": "position", "time": 328877, "x": 0, "y": 0}, {"type": "position", "time": 329876, "x": 0, "y": 0}, {"type": "position", "time": 330876, "x": 0, "y": 0}, {"type": "position", "time": 331878, "x": 0, "y": 0}, {"type": "position", "time": 332876, "x": 0, "y": 0}, {"type": "position", "time": 333868, "x": 0, "y": 0}, {"type": "position", "time": 334868, "x": 0, "y": 0}, {"type": "position", "time": 335951, "x": 0, "y": 0}, {"type": "position", "time": 336867, "x": 0, "y": 0}, {"type": "position", "time": 337867, "x": 0, "y": 0}, {"type": "position", "time": 338868, "x": 0, "y": 0}, {"type": "position", "time": 339867, "x": 0, "y": 0}, {"type": "position", "time": 340867, "x": 0, "y": 0}, {"type": "position", "time": 341867, "x": 0, "y": 0}, {"type": "position", "time": 342867, "x": 0, "y": 0}, {"type": "position", "time": 343868, "x": 0, "y": 0}, {"type": "position", "time": 344867, "x": 0, "y": 0}, {"type": "position", "time": 345867, "x": 0, "y": 0}, {"type": "position", "time": 346867, "x": 0, "y": 0}, {"type": "position", "time": 347868, "x": 0, "y": 0}, {"type": "position", "time": 348868, "x": 0, "y": 0}, {"type": "position", "time": 349867, "x": 0, "y": 0}, {"type": "position", "time": 350867, "x": 0, "y": 0}, {"type": "position", "time": 351868, "x": 0, "y": 0}, {"type": "position", "time": 352867, "x": 0, "y": 0}, {"type": "position", "time": 353867, "x": 0, "y": 0}, {"type": "position", "time": 354867, "x": 0, "y": 0}, {"type": "position", "time": 355867, "x": 0, "y": 0}, {"type": "position", "time": 357117, "x": 0, "y": 0}, {"type": "position", "time": 357866, "x": 0, "y": 0}, {"type": "position", "time": 358756, "x": 0, "y": 0}, {"type": "position", "time": 358761, "x": 0, "y": 0}, {"type": "position", "time": 358807, "x": 0, "y": 0}, {"type": "position", "time": 358857, "x": 0, "y": 0}, {"type": "position", "time": 358906, "x": 0, "y": 0}, {"type": "position", "time": 358958, "x": 0, "y": 0}, {"type": "position", "time": 359008, "x": 0, "y": 0}, {"type": "position", "time": 359057, "x": 0, "y": 0}, {"type": "position", "time": 359107, "x": 0, "y": 0}, {"type": "position", "time": 359157, "x": 0, "y": 0}, {"type": "position", "time": 359206, "x": 0, "y": 0}, {"type": "position", "time": 359258, "x": 0, "y": 0}, {"type": "position", "time": 359306, "x": 0, "y": 0}, {"type": "position", "time": 359361, "x": null, "y": 0.16166666666666665}, {"type": "position", "time": 359408, "x": null, "y": 0.37666666666666665}, {"type": "position", "time": 359457, "x": null, "y": 0.4766666666666667}, {"type": "position", "time": 359506, "x": null, "y": 0.49833333333333335}, {"type": "position", "time": 359557, "x": null, "y": 0.49833333333333335}, {"type": "position", "time": 359608, "x": null, "y": 0.49833333333333335}, {"type": "position", "time": 359657, "x": null, "y": 0.4816666666666667}, {"type": "position", "time": 359707, "x": null, "y": 0.48}, {"type": "position", "time": 359760, "x": null, "y": 0.49}, {"type": "position", "time": 359808, "x": null, "y": 0.5033333333333333}, {"type": "position", "time": 359857, "x": null, "y": 0.505}, {"type": "position", "time": 359907, "x": null, "y": 0.505}, {"type": "position", "time": 359957, "x": null, "y": 0.49833333333333335}, {"type": "position", "time": 360007, "x": null, "y": 0.49666666666666665}, {"type": "position", "time": 360057, "x": null, "y": 0.495}, {"type": "position", "time": 360107, "x": null, "y": 0.49333333333333335}, {"type": "position", "time": 360157, "x": null, "y": 0.49333333333333335}, {"type": "position", "time": 360207, "x": null, "y": 0.49333333333333335}, {"type": "position", "time": 360257, "x": null, "y": 0.49}, {"type": "position", "time": 360306, "x": null, "y": 0.48833333333333334}, {"type": "position", "time": 360356, "x": null, "y": 0.48833333333333334}, {"type": "position", "time": 360407, "x": null, "y": 0.48833333333333334}, {"type": "position", "time": 360457, "x": null, "y": 0.48833333333333334}, {"type": "position", "time": 360507, "x": null, "y": 0.48833333333333334}, {"type": "position", "time": 360557, "x": null, "y": 0.485}, {"type": "position", "time": 360607, "x": null, "y": 0.485}, {"type": "position", "time": 360656, "x": null, "y": 0.485}, {"type": "position", "time": 360707, "x": null, "y": 0.485}, {"type": "click", "time": 360771, "x": null, "y": 0.485}, {"type": "position", "time": 360777, "x": null, "y": 0.485}, {"type": "position", "time": 360806, "x": null, "y": 0.485}, {"type": "position", "time": 360857, "x": null, "y": 0.485}, {"type": "position", "time": 360910, "x": null, "y": 0.47333333333333333}, {"type": "position", "time": 360960, "x": null, "y": 0.455}, {"type": "position", "time": 361011, "x": null, "y": 0.43166666666666664}, {"type": "position", "time": 361059, "x": null, "y": 0.4166666666666667}, {"type": "position", "time": 361109, "x": null, "y": 0.4}, {"type": "position", "time": 361157, "x": null, "y": 0.39666666666666667}, {"type": "position", "time": 361206, "x": null, "y": 0.3933333333333333}, {"type": "position", "time": 361257, "x": null, "y": 0.37666666666666665}, {"type": "position", "time": 361306, "x": null, "y": 0.36}, {"type": "position", "time": 361356, "x": null, "y": 0.3466666666666667}, {"type": "position", "time": 361408, "x": null, "y": 0.3283333333333333}, {"type": "position", "time": 361456, "x": null, "y": 0.3283333333333333}, {"type": "position", "time": 361506, "x": null, "y": 0.3283333333333333}, {"type": "position", "time": 361556, "x": null, "y": 0.3283333333333333}, {"type": "position", "time": 361612, "x": null, "y": 0.335}, {"type": "position", "time": 361659, "x": null, "y": 0.32166666666666666}, {"type": "position", "time": 361707, "x": null, "y": 0.3}, {"type": "position", "time": 361759, "x": null, "y": 0.3}, {"type": "position", "time": 361806, "x": null, "y": 0.3}, {"type": "position", "time": 361857, "x": null, "y": 0.29333333333333333}, {"type": "position", "time": 361906, "x": null, "y": 0.29333333333333333}, {"type": "position", "time": 361956, "x": null, "y": 0.29333333333333333}, {"type": "position", "time": 362013, "x": null, "y": 0.2916666666666667}, {"type": "position", "time": 362062, "x": null, "y": 0.28}, {"type": "position", "time": 362112, "x": null, "y": 0.26}, {"type": "position", "time": 362156, "x": null, "y": 0.25}, {"type": "position", "time": 362206, "x": null, "y": 0.25}, {"type": "position", "time": 362256, "x": null, "y": 0.25}, {"type": "position", "time": 362306, "x": null, "y": 0.25}, {"type": "position", "time": 362356, "x": null, "y": 0.25}, {"type": "position", "time": 362406, "x": null, "y": 0.25}, {"type": "position", "time": 362456, "x": null, "y": 0.25}, {"type": "position", "time": 362506, "x": null, "y": 0.25}, {"type": "position", "time": 362556, "x": null, "y": 0.25}, {"type": "position", "time": 362613, "x": null, "y": 0.23833333333333334}, {"type": "position", "time": 362659, "x": null, "y": 0.22666666666666666}, {"type": "position", "time": 362745, "x": null, "y": 0.22}, {"type": "position", "time": 362758, "x": null, "y": 0.22}, {"type": "position", "time": 362806, "x": null, "y": 0.22}, {"type": "position", "time": 362856, "x": null, "y": 0.22}, {"type": "position", "time": 362906, "x": null, "y": 0.22}, {"type": "position", "time": 362956, "x": null, "y": 0.22}, {"type": "position", "time": 363006, "x": null, "y": 0.22}, {"type": "position", "time": 363056, "x": null, "y": 0.22}, {"type": "position", "time": 363109, "x": null, "y": 0.21166666666666667}, {"type": "position", "time": 363157, "x": null, "y": 0.20333333333333334}, {"type": "position", "time": 363207, "x": null, "y": 0.20333333333333334}, {"type": "position", "time": 363256, "x": null, "y": 0.13833333333333334}, {"type": "position", "time": 363307, "x": null, "y": 0.01}, {"type": "position", "time": 363357, "x": null, "y": 0.01}, {"type": "position", "time": 363407, "x": null, "y": 0.01}, {"type": "position", "time": 363456, "x": null, "y": 0.01}, {"type": "position", "time": 363540, "x": null, "y": 0.01}, {"type": "position", "time": 363557, "x": null, "y": 0.01}, {"type": "position", "time": 363607, "x": null, "y": 0.01}, {"type": "position", "time": 363867, "x": null, "y": 0.01}, {"type": "position", "time": 364867, "x": null, "y": 0.01}, {"type": "position", "time": 365867, "x": null, "y": 0.01}, {"type": "position", "time": 366867, "x": null, "y": 0.01}, {"type": "position", "time": 367618, "x": null, "y": 0.01}, {"type": "position", "time": 367657, "x": null, "y": 0.01}, {"type": "position", "time": 367708, "x": null, "y": 0.01}, {"type": "position", "time": 367756, "x": null, "y": 0.01}, {"type": "position", "time": 367806, "x": null, "y": 0.01}, {"type": "position", "time": 367857, "x": null, "y": 0.01}, {"type": "position", "time": 367908, "x": null, "y": 0.01}, {"type": "position", "time": 367957, "x": null, "y": 0.01}, {"type": "position", "time": 368007, "x": null, "y": 0.01}, {"type": "position", "time": 368058, "x": null, "y": 0.01}, {"type": "position", "time": 368108, "x": null, "y": 0.01}, {"type": "position", "time": 368157, "x": null, "y": 0.01}, {"type": "position", "time": 368207, "x": null, "y": 0.01}, {"type": "position", "time": 368257, "x": null, "y": 0.08}, {"type": "position", "time": 368306, "x": null, "y": 0.19666666666666666}, {"type": "position", "time": 368356, "x": null, "y": 0.2966666666666667}, {"type": "position", "time": 368407, "x": null, "y": 0.335}, {"type": "position", "time": 368456, "x": null, "y": 0.335}, {"type": "position", "time": 368506, "x": null, "y": 0.335}, {"type": "position", "time": 368559, "x": null, "y": 0.325}, {"type": "position", "time": 368608, "x": null, "y": 0.30833333333333335}, {"type": "position", "time": 368656, "x": null, "y": 0.295}, {"type": "position", "time": 368706, "x": null, "y": 0.28833333333333333}, {"type": "position", "time": 368758, "x": null, "y": 0.28833333333333333}, {"type": "position", "time": 368806, "x": null, "y": 0.28833333333333333}, {"type": "position", "time": 368856, "x": null, "y": 0.28833333333333333}, {"type": "position", "time": 368906, "x": null, "y": 0.28833333333333333}, {"type": "position", "time": 368956, "x": null, "y": 0.28833333333333333}, {"type": "position", "time": 369006, "x": null, "y": 0.28833333333333333}, {"type": "position", "time": 369056, "x": null, "y": 0.28833333333333333}, {"type": "position", "time": 369106, "x": null, "y": 0.28833333333333333}, {"type": "position", "time": 369157, "x": null, "y": 0.28833333333333333}, {"type": "position", "time": 369213, "x": null, "y": 0.28}, {"type": "position", "time": 369259, "x": null, "y": 0.2683333333333333}, {"type": "position", "time": 369306, "x": null, "y": 0.2633333333333333}, {"type": "position", "time": 369357, "x": null, "y": 0.26166666666666666}, {"type": "position", "time": 369407, "x": null, "y": 0.25833333333333336}, {"type": "position", "time": 369457, "x": null, "y": 0.25833333333333336}, {"type": "position", "time": 369507, "x": null, "y": 0.25833333333333336}, {"type": "position", "time": 369557, "x": null, "y": 0.25833333333333336}, {"type": "position", "time": 369607, "x": null, "y": 0.25833333333333336}, {"type": "position", "time": 369657, "x": null, "y": 0.25833333333333336}, {"type": "position", "time": 369706, "x": null, "y": 0.25833333333333336}, {"type": "position", "time": 369756, "x": null, "y": 0.25833333333333336}, {"type": "position", "time": 369806, "x": null, "y": 0.25833333333333336}, {"type": "position", "time": 369856, "x": null, "y": 0.25833333333333336}, {"type": "position", "time": 369907, "x": null, "y": 0.25833333333333336}, {"type": "position", "time": 369957, "x": null, "y": 0.25833333333333336}, {"type": "position", "time": 370007, "x": null, "y": 0.25833333333333336}, {"type": "position", "time": 370056, "x": null, "y": 0.25833333333333336}, {"type": "position", "time": 370106, "x": null, "y": 0.25833333333333336}, {"type": "position", "time": 370157, "x": null, "y": 0.25833333333333336}, {"type": "position", "time": 370207, "x": null, "y": 0.25833333333333336}, {"type": "position", "time": 370257, "x": null, "y": 0.25833333333333336}, {"type": "position", "time": 370307, "x": null, "y": 0.25833333333333336}, {"type": "position", "time": 370357, "x": null, "y": 0.25833333333333336}, {"type": "position", "time": 370407, "x": null, "y": 0.25833333333333336}, {"type": "position", "time": 370458, "x": null, "y": 0.24833333333333332}, {"type": "position", "time": 370506, "x": null, "y": 0.24166666666666667}, {"type": "position", "time": 370556, "x": null, "y": 0.235}, {"type": "position", "time": 370608, "x": null, "y": 0.23333333333333334}, {"type": "position", "time": 370657, "x": null, "y": 0.23333333333333334}, {"type": "position", "time": 370707, "x": null, "y": 0.23333333333333334}, {"type": "position", "time": 370756, "x": null, "y": 0.23333333333333334}, {"type": "position", "time": 370807, "x": null, "y": 0.23333333333333334}, {"type": "position", "time": 370857, "x": null, "y": 0.23333333333333334}, {"type": "position", "time": 370906, "x": null, "y": 0.23333333333333334}, {"type": "position", "time": 370957, "x": null, "y": 0.23333333333333334}, {"type": "position", "time": 371007, "x": null, "y": 0.23333333333333334}, {"type": "position", "time": 371057, "x": null, "y": 0.23333333333333334}, {"type": "position", "time": 371107, "x": null, "y": 0.23333333333333334}, {"type": "position", "time": 371157, "x": null, "y": 0.23333333333333334}, {"type": "position", "time": 371206, "x": null, "y": 0.23333333333333334}, {"type": "position", "time": 371256, "x": null, "y": 0.23333333333333334}, {"type": "position", "time": 371306, "x": null, "y": 0.23333333333333334}, {"type": "position", "time": 371356, "x": null, "y": 0.23333333333333334}, {"type": "position", "time": 371406, "x": null, "y": 0.23333333333333334}, {"type": "position", "time": 371456, "x": null, "y": 0.23333333333333334}, {"type": "position", "time": 371506, "x": null, "y": 0.23333333333333334}, {"type": "position", "time": 371556, "x": null, "y": 0.23333333333333334}, {"type": "position", "time": 371606, "x": null, "y": 0.23333333333333334}, {"type": "position", "time": 371656, "x": null, "y": 0.23333333333333334}, {"type": "position", "time": 371707, "x": null, "y": 0.23333333333333334}, {"type": "position", "time": 371757, "x": null, "y": 0.23333333333333334}, {"type": "position", "time": 371807, "x": null, "y": 0.23333333333333334}, {"type": "position", "time": 371857, "x": null, "y": 0.23333333333333334}, {"type": "position", "time": 371906, "x": null, "y": 0.23333333333333334}, {"type": "position", "time": 371956, "x": null, "y": 0.23333333333333334}, {"type": "position", "time": 372006, "x": null, "y": 0.23333333333333334}, {"type": "position", "time": 372056, "x": null, "y": 0.23333333333333334}, {"type": "position", "time": 372106, "x": null, "y": 0.23333333333333334}, {"type": "position", "time": 372157, "x": null, "y": 0.23333333333333334}, {"type": "position", "time": 372207, "x": null, "y": 0.23333333333333334}, {"type": "position", "time": 372257, "x": null, "y": 0.23333333333333334}, {"type": "position", "time": 372340, "x": null, "y": 0.23333333333333334}, {"type": "position", "time": 372357, "x": null, "y": 0.23333333333333334}, {"type": "position", "time": 372407, "x": null, "y": 0.23333333333333334}, {"type": "position", "time": 372457, "x": null, "y": 0.23333333333333334}, {"type": "position", "time": 372507, "x": null, "y": 0.23333333333333334}, {"type": "position", "time": 372557, "x": null, "y": 0.23333333333333334}, {"type": "position", "time": 372606, "x": null, "y": 0.23333333333333334}, {"type": "position", "time": 372656, "x": null, "y": 0.23333333333333334}, {"type": "position", "time": 372706, "x": null, "y": 0.23333333333333334}, {"type": "position", "time": 372756, "x": null, "y": 0.23333333333333334}, {"type": "position", "time": 372806, "x": null, "y": 0.23333333333333334}, {"type": "position", "time": 372856, "x": null, "y": 0.23333333333333334}, {"type": "position", "time": 372906, "x": null, "y": 0.23333333333333334}, {"type": "position", "time": 372956, "x": null, "y": 0.23333333333333334}, {"type": "position", "time": 373006, "x": null, "y": 0.23333333333333334}, {"type": "position", "time": 373056, "x": null, "y": 0.23333333333333334}, {"type": "position", "time": 373107, "x": null, "y": 0.23333333333333334}, {"type": "position", "time": 373196, "x": null, "y": 0.23333333333333334}, {"type": "position", "time": 373207, "x": null, "y": 0.23333333333333334}, {"type": "position", "time": 373256, "x": null, "y": 0.23333333333333334}, {"type": "position", "time": 373306, "x": null, "y": 0.23333333333333334}, {"type": "position", "time": 373356, "x": null, "y": 0.23333333333333334}, {"type": "position", "time": 373406, "x": null, "y": 0.23333333333333334}, {"type": "position", "time": 373456, "x": null, "y": 0.23333333333333334}, {"type": "position", "time": 373506, "x": null, "y": 0.23333333333333334}, {"type": "position", "time": 373556, "x": null, "y": 0.23333333333333334}, {"type": "position", "time": 373606, "x": null, "y": 0.23333333333333334}, {"type": "position", "time": 373657, "x": null, "y": 0.23333333333333334}, {"type": "position", "time": 373707, "x": null, "y": 0.23333333333333334}, {"type": "position", "time": 373757, "x": null, "y": 0.23333333333333334}, {"type": "position", "time": 373807, "x": null, "y": 0.23333333333333334}, {"type": "position", "time": 373857, "x": null, "y": 0.23333333333333334}, {"type": "position", "time": 373907, "x": null, "y": 0.23333333333333334}, {"type": "position", "time": 373957, "x": null, "y": 0.23333333333333334}, {"type": "position", "time": 374007, "x": null, "y": 0.23333333333333334}, {"type": "position", "time": 374057, "x": null, "y": 0.23333333333333334}, {"type": "position", "time": 374108, "x": null, "y": 0.23333333333333334}, {"type": "position", "time": 374157, "x": null, "y": 0.23333333333333334}, {"type": "position", "time": 374206, "x": null, "y": 0.23333333333333334}, {"type": "position", "time": 374257, "x": null, "y": 0.23333333333333334}, {"type": "position", "time": 374307, "x": null, "y": 0.23333333333333334}, {"type": "position", "time": 374357, "x": null, "y": 0.23333333333333334}, {"type": "position", "time": 374407, "x": null, "y": 0.23333333333333334}, {"type": "position", "time": 374457, "x": null, "y": 0.23333333333333334}, {"type": "position", "time": 374507, "x": null, "y": 0.23333333333333334}, {"type": "position", "time": 374557, "x": null, "y": 0.23333333333333334}, {"type": "position", "time": 374606, "x": null, "y": 0.23333333333333334}, {"type": "position", "time": 374656, "x": null, "y": 0.23333333333333334}, {"type": "position", "time": 374706, "x": null, "y": 0.23333333333333334}, {"type": "position", "time": 374756, "x": null, "y": 0.23333333333333334}, {"type": "position", "time": 374806, "x": null, "y": 0.23333333333333334}, {"type": "position", "time": 374856, "x": null, "y": 0.23333333333333334}, {"type": "position", "time": 374920, "x": null, "y": 0.23333333333333334}, {"type": "position", "time": 374957, "x": null, "y": 0.23333333333333334}, {"type": "position", "time": 375007, "x": null, "y": 0.23333333333333334}, {"type": "position", "time": 375057, "x": null, "y": 0.23333333333333334}, {"type": "position", "time": 375107, "x": null, "y": 0.23333333333333334}, {"type": "position", "time": 375156, "x": null, "y": 0.23333333333333334}, {"type": "position", "time": 375206, "x": null, "y": 0.23333333333333334}, {"type": "position", "time": 375256, "x": null, "y": 0.23333333333333334}, {"type": "position", "time": 375306, "x": null, "y": 0.23333333333333334}, {"type": "position", "time": 375357, "x": null, "y": 0.23}, {"type": "position", "time": 375413, "x": null, "y": 0.22833333333333333}, {"type": "position", "time": 375457, "x": null, "y": 0.255}, {"type": "position", "time": 375510, "x": null, "y": 0.34}, {"type": "position", "time": 375558, "x": null, "y": 0.42}, {"type": "position", "time": 375608, "x": null, "y": 0.47}, {"type": "position", "time": 375658, "x": null, "y": 0.49333333333333335}, {"type": "position", "time": 375707, "x": null, "y": 0.5166666666666667}, {"type": "position", "time": 375756, "x": null, "y": 0.53}, {"type": "position", "time": 375808, "x": null, "y": 0.54}, {"type": "position", "time": 375857, "x": null, "y": 0.5433333333333333}, {"type": "position", "time": 375907, "x": null, "y": 0.55}, {"type": "position", "time": 376291, "x": null, "y": 0.555}, {"type": "position", "time": 376307, "x": null, "y": 0.555}, {"type": "position", "time": 376357, "x": null, "y": 0.555}, {"type": "position", "time": 376407, "x": null, "y": 0.5583333333333333}, {"type": "position", "time": 376457, "x": null, "y": 0.56}, {"type": "position", "time": 376507, "x": null, "y": 0.5616666666666666}, {"type": "position", "time": 376557, "x": null, "y": 0.5616666666666666}, {"type": "position", "time": 376607, "x": null, "y": 0.5616666666666666}, {"type": "position", "time": 376657, "x": null, "y": 0.5616666666666666}, {"type": "position", "time": 376707, "x": null, "y": 0.5616666666666666}, {"type": "position", "time": 376757, "x": null, "y": 0.5616666666666666}, {"type": "position", "time": 376807, "x": null, "y": 0.5616666666666666}, {"type": "position", "time": 376857, "x": null, "y": 0.5616666666666666}, {"type": "position", "time": 376907, "x": null, "y": 0.5633333333333334}, {"type": "slider", "time": 376955, "value": 0.99}, {"type": "position", "time": 376960, "x": null, "y": 0.5633333333333334}, {"type": "slider", "time": 376972, "value": 1}, {"type": "position", "time": 377007, "x": null, "y": 0.565}, {"type": "click", "time": 377039, "x": null, "y": 0.565}, {"type": "position", "time": 377057, "x": null, "y": 0.565}, {"type": "position", "time": 377107, "x": null, "y": 0.565}, {"type": "position", "time": 377157, "x": null, "y": 0.5683333333333334}, {"type": "position", "time": 377207, "x": null, "y": 0.5683333333333334}, {"type": "position", "time": 377257, "x": null, "y": 0.5683333333333334}, {"type": "position", "time": 377313, "x": null, "y": 0.575}, {"type": "position", "time": 377364, "x": null, "y": 0.595}, {"type": "position", "time": 377413, "x": null, "y": 0.6316666666666667}, {"type": "position", "time": 377460, "x": null, "y": 0.6566666666666666}, {"type": "position", "time": 377509, "x": null, "y": 0.675}, {"type": "position", "time": 377558, "x": null, "y": 0.6783333333333333}, {"type": "position", "time": 377608, "x": null, "y": 0.675}, {"type": "position", "time": 377658, "x": null, "y": 0.6716666666666666}, {"type": "position", "time": 377707, "x": null, "y": 0.67}, {"type": "position", "time": 377757, "x": null, "y": 0.67}, {"type": "position", "time": 377807, "x": null, "y": 0.67}, {"type": "position", "time": 377857, "x": null, "y": 0.67}, {"type": "position", "time": 377907, "x": null, "y": 0.67}, {"type": "position", "time": 377957, "x": null, "y": 0.67}, {"type": "position", "time": 378007, "x": null, "y": 0.6683333333333333}, {"type": "position", "time": 378057, "x": null, "y": 0.6666666666666666}, {"type": "position", "time": 378107, "x": null, "y": 0.6633333333333333}, {"type": "position", "time": 378157, "x": null, "y": 0.6633333333333333}, {"type": "position", "time": 378207, "x": null, "y": 0.6633333333333333}, {"type": "position", "time": 378257, "x": null, "y": 0.6633333333333333}, {"type": "position", "time": 378307, "x": null, "y": 0.6633333333333333}, {"type": "position", "time": 378357, "x": null, "y": 0.6633333333333333}, {"type": "click", "time": 378385, "x": null, "y": 0.6633333333333333}, {"type": "position", "time": 378407, "x": null, "y": 0.6633333333333333}, {"type": "position", "time": 378457, "x": null, "y": 0.6633333333333333}, {"type": "position", "time": 378507, "x": null, "y": 0.6633333333333333}, {"type": "position", "time": 378557, "x": null, "y": 0.6533333333333333}, {"type": "position", "time": 378608, "x": null, "y": 0.6383333333333333}, {"type": "position", "time": 378661, "x": null, "y": 0.6116666666666667}, {"type": "position", "time": 378713, "x": null, "y": 0.5866666666666667}, {"type": "position", "time": 378763, "x": null, "y": 0.5716666666666667}, {"type": "position", "time": 378813, "x": null, "y": 0.565}, {"type": "position", "time": 378859, "x": null, "y": 0.5633333333333334}, {"type": "position", "time": 378910, "x": null, "y": 0.56}, {"type": "position", "time": 378957, "x": null, "y": 0.56}, {"type": "position", "time": 379007, "x": null, "y": 0.56}, {"type": "position", "time": 379057, "x": null, "y": 0.56}, {"type": "position", "time": 379107, "x": null, "y": 0.56}, {"type": "position", "time": 379158, "x": null, "y": 0.5583333333333333}, {"type": "position", "time": 379207, "x": null, "y": 0.5566666666666666}, {"type": "position", "time": 379257, "x": null, "y": 0.5566666666666666}, {"type": "position", "time": 379307, "x": null, "y": 0.555}, {"type": "position", "time": 379357, "x": null, "y": 0.5516666666666666}, {"type": "position", "time": 379409, "x": null, "y": 0.5416666666666666}, {"type": "position", "time": 379466, "x": null, "y": 0.5316666666666666}, {"type": "position", "time": 379507, "x": null, "y": 0.5266666666666666}, {"type": "position", "time": 379557, "x": null, "y": 0.52}, {"type": "position", "time": 379609, "x": null, "y": 0.515}, {"type": "position", "time": 379657, "x": null, "y": 0.5033333333333333}, {"type": "position", "time": 379707, "x": null, "y": 0.47}, {"type": "position", "time": 379757, "x": null, "y": 0.4033333333333333}, {"type": "position", "time": 379912, "x": null, "y": 0.3566666666666667}, {"type": "position", "time": 379957, "x": null, "y": 0.3566666666666667}, {"type": "position", "time": 380007, "x": null, "y": 0.3566666666666667}, {"type": "position", "time": 380057, "x": null, "y": 0.3566666666666667}, {"type": "position", "time": 380107, "x": null, "y": 0.3566666666666667}, {"type": "position", "time": 380157, "x": null, "y": 0.3566666666666667}, {"type": "position", "time": 380207, "x": null, "y": 0.3566666666666667}, {"type": "position", "time": 380257, "x": null, "y": 0.3566666666666667}, {"type": "position", "time": 380308, "x": null, "y": 0.3566666666666667}, {"type": "position", "time": 380357, "x": null, "y": 0.3566666666666667}, {"type": "position", "time": 380407, "x": null, "y": 0.3566666666666667}, {"type": "position", "time": 380457, "x": null, "y": 0.3566666666666667}, {"type": "position", "time": 380507, "x": null, "y": 0.3566666666666667}, {"type": "position", "time": 380590, "x": null, "y": 0.3566666666666667}, {"type": "position", "time": 380607, "x": null, "y": 0.3566666666666667}, {"type": "position", "time": 380657, "x": null, "y": 0.3566666666666667}, {"type": "position", "time": 380707, "x": null, "y": 0.3566666666666667}, {"type": "position", "time": 380757, "x": null, "y": 0.3566666666666667}, {"type": "position", "time": 380807, "x": null, "y": 0.3566666666666667}, {"type": "position", "time": 380857, "x": null, "y": 0.3566666666666667}, {"type": "position", "time": 380907, "x": null, "y": 0.3566666666666667}, {"type": "position", "time": 380957, "x": null, "y": 0.3566666666666667}, {"type": "position", "time": 381007, "x": null, "y": 0.3566666666666667}, {"type": "position", "time": 381057, "x": null, "y": 0.3566666666666667}, {"type": "position", "time": 381107, "x": null, "y": 0.3566666666666667}, {"type": "position", "time": 381202, "x": null, "y": 0.3566666666666667}, {"type": "position", "time": 381207, "x": null, "y": 0.3566666666666667}, {"type": "position", "time": 381275, "x": null, "y": 0.3566666666666667}, {"type": "position", "time": 381327, "x": null, "y": 0.3566666666666667}, {"type": "position", "time": 381357, "x": null, "y": 0.3566666666666667}, {"type": "position", "time": 381407, "x": null, "y": 0.3566666666666667}, {"type": "position", "time": 381457, "x": null, "y": 0.3566666666666667}, {"type": "position", "time": 381507, "x": null, "y": 0.3566666666666667}, {"type": "position", "time": 381573, "x": null, "y": 0.3566666666666667}, {"type": "position", "time": 381607, "x": null, "y": 0.3566666666666667}, {"type": "position", "time": 381657, "x": null, "y": 0.3566666666666667}, {"type": "position", "time": 381707, "x": null, "y": 0.3566666666666667}, {"type": "position", "time": 381757, "x": null, "y": 0.3566666666666667}, {"type": "position", "time": 381808, "x": null, "y": 0.3566666666666667}, {"type": "position", "time": 381857, "x": null, "y": 0.3566666666666667}, {"type": "position", "time": 381906, "x": null, "y": 0.3566666666666667}, {"type": "position", "time": 381956, "x": null, "y": 0.3566666666666667}, {"type": "position", "time": 382006, "x": null, "y": 0.3566666666666667}, {"type": "position", "time": 382056, "x": null, "y": 0.3566666666666667}, {"type": "position", "time": 382106, "x": null, "y": 0.3566666666666667}, {"type": "position", "time": 382156, "x": null, "y": 0.3566666666666667}, {"type": "position", "time": 382206, "x": null, "y": 0.3566666666666667}, {"type": "position", "time": 382256, "x": null, "y": 0.3566666666666667}, {"type": "position", "time": 382306, "x": null, "y": 0.3566666666666667}, {"type": "position", "time": 382356, "x": null, "y": 0.3566666666666667}, {"type": "position", "time": 382406, "x": null, "y": 0.3566666666666667}, {"type": "position", "time": 382456, "x": null, "y": 0.3566666666666667}, {"type": "position", "time": 382506, "x": null, "y": 0.3566666666666667}, {"type": "position", "time": 382556, "x": null, "y": 0.3566666666666667}, {"type": "position", "time": 382607, "x": null, "y": 0.3566666666666667}, {"type": "position", "time": 382656, "x": null, "y": 0.3566666666666667}, {"type": "position", "time": 382706, "x": null, "y": 0.3566666666666667}, {"type": "position", "time": 382756, "x": null, "y": 0.3566666666666667}, {"type": "position", "time": 382809, "x": null, "y": 0.3566666666666667}, {"type": "position", "time": 382856, "x": null, "y": 0.3566666666666667}, {"type": "position", "time": 382906, "x": null, "y": 0.3566666666666667}, {"type": "position", "time": 382956, "x": null, "y": 0.3566666666666667}, {"type": "position", "time": 383006, "x": null, "y": 0.3566666666666667}, {"type": "position", "time": 383056, "x": null, "y": 0.3566666666666667}, {"type": "position", "time": 383108, "x": null, "y": 0.3566666666666667}, {"type": "position", "time": 383156, "x": null, "y": 0.3566666666666667}, {"type": "position", "time": 383208, "x": null, "y": 0.3566666666666667}, {"type": "position", "time": 383256, "x": null, "y": 0.3566666666666667}, {"type": "position", "time": 383306, "x": null, "y": 0.3566666666666667}, {"type": "position", "time": 383356, "x": null, "y": 0.3566666666666667}, {"type": "position", "time": 383406, "x": null, "y": 0.3566666666666667}, {"type": "position", "time": 383456, "x": null, "y": 0.3566666666666667}, {"type": "position", "time": 383506, "x": null, "y": 0.3566666666666667}, {"type": "position", "time": 383556, "x": null, "y": 0.3566666666666667}, {"type": "position", "time": 383606, "x": null, "y": 0.3566666666666667}, {"type": "position", "time": 383656, "x": null, "y": 0.3566666666666667}, {"type": "position", "time": 383755, "x": null, "y": 0.3566666666666667}, {"type": "position", "time": 383756, "x": null, "y": 0.3566666666666667}, {"type": "position", "time": 383871, "x": null, "y": 0.3566666666666667}, {"type": "position", "time": 383928, "x": null, "y": 0.3566666666666667}, {"type": "position", "time": 383956, "x": null, "y": 0.3566666666666667}, {"type": "position", "time": 384006, "x": null, "y": 0.3566666666666667}, {"type": "position", "time": 384056, "x": null, "y": 0.3566666666666667}, {"type": "position", "time": 384106, "x": null, "y": 0.3566666666666667}, {"type": "position", "time": 384197, "x": null, "y": 0.3566666666666667}, {"type": "position", "time": 384206, "x": null, "y": 0.3566666666666667}, {"type": "position", "time": 384256, "x": null, "y": 0.3566666666666667}, {"type": "position", "time": 384306, "x": null, "y": 0.3566666666666667}, {"type": "position", "time": 384356, "x": null, "y": 0.3566666666666667}, {"type": "position", "time": 384413, "x": null, "y": 0.3566666666666667}, {"type": "position", "time": 384456, "x": null, "y": 0.3566666666666667}, {"type": "position", "time": 384506, "x": null, "y": 0.3566666666666667}, {"type": "position", "time": 384556, "x": null, "y": 0.3566666666666667}, {"type": "position", "time": 384608, "x": null, "y": 0.3566666666666667}, {"type": "position", "time": 384656, "x": null, "y": 0.3566666666666667}, {"type": "position", "time": 384707, "x": null, "y": 0.3566666666666667}, {"type": "position", "time": 384756, "x": null, "y": 0.18166666666666667}, {"type": "position", "time": 384807, "x": null, "y": 0.435}, {"type": "position", "time": 384856, "x": null, "y": 0.5283333333333333}, {"type": "position", "time": 384906, "x": null, "y": 0.54}, {"type": "position", "time": 384956, "x": null, "y": 0.5283333333333333}, {"type": "position", "time": 385008, "x": null, "y": 0.5233333333333333}, {"type": "position", "time": 385056, "x": null, "y": 0.5233333333333333}, {"type": "position", "time": 385106, "x": null, "y": 0.5233333333333333}, {"type": "position", "time": 385156, "x": null, "y": 0.5233333333333333}, {"type": "position", "time": 385206, "x": null, "y": 0.5233333333333333}, {"type": "position", "time": 385266, "x": null, "y": 0.5233333333333333}, {"type": "position", "time": 385306, "x": null, "y": 0.5233333333333333}, {"type": "position", "time": 385356, "x": null, "y": 0.5233333333333333}, {"type": "position", "time": 385406, "x": null, "y": 0.5233333333333333}, {"type": "position", "time": 385456, "x": null, "y": 0.5233333333333333}, {"type": "position", "time": 385506, "x": null, "y": 0.5233333333333333}, {"type": "position", "time": 385556, "x": null, "y": 0.5233333333333333}, {"type": "position", "time": 385606, "x": null, "y": 0.5233333333333333}, {"type": "position", "time": 385656, "x": null, "y": 0.5233333333333333}, {"type": "position", "time": 385706, "x": null, "y": 0.5233333333333333}, {"type": "position", "time": 385756, "x": null, "y": 0.5233333333333333}, {"type": "position", "time": 385806, "x": null, "y": 0.5233333333333333}, {"type": "position", "time": 385856, "x": null, "y": 0.5233333333333333}, {"type": "position", "time": 385917, "x": null, "y": 0.5233333333333333}, {"type": "position", "time": 385960, "x": null, "y": 0.5233333333333333}, {"type": "position", "time": 386007, "x": null, "y": 0.515}, {"type": "position", "time": 386056, "x": null, "y": 0.5133333333333333}, {"type": "position", "time": 386106, "x": null, "y": 0.5116666666666667}, {"type": "position", "time": 386194, "x": null, "y": 0.5116666666666667}, {"type": "position", "time": 386625, "x": null, "y": 0.515}, {"type": "position", "time": 386656, "x": null, "y": 0.5366666666666666}, {"type": "position", "time": 386706, "x": null, "y": 0.5366666666666666}, {"type": "position", "time": 386756, "x": null, "y": 0.5383333333333333}, {"type": "position", "time": 386806, "x": null, "y": 0.5383333333333333}, {"type": "position", "time": 386856, "x": null, "y": 0.5383333333333333}, {"type": "position", "time": 386906, "x": null, "y": 0.5383333333333333}, {"type": "position", "time": 386956, "x": null, "y": 0.5383333333333333}, {"type": "position", "time": 387006, "x": null, "y": 0.5383333333333333}, {"type": "position", "time": 387056, "x": null, "y": 0.5383333333333333}, {"type": "position", "time": 387106, "x": null, "y": 0.5383333333333333}, {"type": "position", "time": 387157, "x": null, "y": 0.5383333333333333}, {"type": "position", "time": 387198, "x": null, "y": 0.5383333333333333}, {"type": "position", "time": 387256, "x": null, "y": 0.5383333333333333}, {"type": "position", "time": 387306, "x": null, "y": 0.5383333333333333}, {"type": "position", "time": 387357, "x": null, "y": 0.5383333333333333}, {"type": "position", "time": 387406, "x": null, "y": 0.5383333333333333}, {"type": "position", "time": 387459, "x": null, "y": 0.5383333333333333}, {"type": "position", "time": 387506, "x": null, "y": 0.5383333333333333}, {"type": "position", "time": 387556, "x": null, "y": 0.5383333333333333}, {"type": "position", "time": 387606, "x": null, "y": 0.5383333333333333}, {"type": "position", "time": 387656, "x": null, "y": 0.535}, {"type": "position", "time": 387706, "x": null, "y": 0.535}, {"type": "position", "time": 387755, "x": null, "y": 0.535}, {"type": "position", "time": 387805, "x": null, "y": 0.535}, {"type": "position", "time": 387855, "x": null, "y": 0.535}, {"type": "position", "time": 387906, "x": null, "y": 0.535}, {"type": "position", "time": 387956, "x": null, "y": 0.535}, {"type": "position", "time": 388021, "x": null, "y": 0.535}, {"type": "position", "time": 388071, "x": null, "y": 0.535}, {"type": "position", "time": 388118, "x": null, "y": 0.535}, {"type": "position", "time": 388156, "x": null, "y": 0.535}, {"type": "position", "time": 388206, "x": null, "y": 0.535}, {"type": "position", "time": 388256, "x": null, "y": 0.535}, {"type": "click", "time": 388270, "x": null, "y": 0.535}, {"type": "position", "time": 388306, "x": null, "y": 0.535}, {"type": "position", "time": 388356, "x": null, "y": 0.535}, {"type": "position", "time": 388419, "x": null, "y": 0.535}, {"type": "position", "time": 388456, "x": null, "y": 0.5333333333333333}, {"type": "position", "time": 388506, "x": null, "y": 0.5316666666666666}, {"type": "position", "time": 388556, "x": null, "y": 0.5283333333333333}, {"type": "position", "time": 388606, "x": null, "y": 0.525}, {"type": "position", "time": 388656, "x": null, "y": 0.5183333333333333}, {"type": "position", "time": 388706, "x": null, "y": 0.515}, {"type": "position", "time": 388756, "x": null, "y": 0.515}, {"type": "position", "time": 388820, "x": null, "y": 0.515}, {"type": "position", "time": 388856, "x": null, "y": 0.515}, {"type": "position", "time": 388910, "x": null, "y": 0.515}, {"type": "position", "time": 388956, "x": null, "y": 0.515}, {"type": "position", "time": 389021, "x": null, "y": 0.515}, {"type": "position", "time": 389056, "x": null, "y": 0.515}, {"type": "position", "time": 389110, "x": null, "y": 0.515}, {"type": "position", "time": 389157, "x": null, "y": 0.515}, {"type": "position", "time": 389206, "x": null, "y": 0.515}, {"type": "position", "time": 389258, "x": null, "y": 0.515}, {"type": "position", "time": 389321, "x": null, "y": 0.515}, {"type": "position", "time": 389367, "x": null, "y": 0.515}, {"type": "position", "time": 389417, "x": null, "y": 0.515}, {"type": "position", "time": 389464, "x": null, "y": 0.515}, {"type": "position", "time": 389506, "x": null, "y": 0.515}, {"type": "position", "time": 389570, "x": null, "y": 0.515}, {"type": "position", "time": 389618, "x": null, "y": 0.515}, {"type": "position", "time": 389665, "x": null, "y": 0.515}, {"type": "position", "time": 389706, "x": null, "y": 0.515}, {"type": "position", "time": 389757, "x": null, "y": 0.515}, {"type": "position", "time": 389806, "x": null, "y": 0.515}, {"type": "position", "time": 389869, "x": null, "y": 0.515}, {"type": "position", "time": 389918, "x": null, "y": 0.515}, {"type": "position", "time": 389956, "x": null, "y": 0.515}, {"type": "position", "time": 390005, "x": null, "y": 0.515}, {"type": "position", "time": 390068, "x": null, "y": 0.515}, {"type": "position", "time": 390118, "x": null, "y": 0.515}, {"type": "position", "time": 390165, "x": null, "y": 0.515}, {"type": "position", "time": 390218, "x": null, "y": 0.515}, {"type": "position", "time": 390265, "x": null, "y": 0.515}, {"type": "position", "time": 390318, "x": null, "y": 0.515}, {"type": "position", "time": 390356, "x": null, "y": 0.515}, {"type": "position", "time": 390418, "x": null, "y": 0.515}, {"type": "position", "time": 390465, "x": null, "y": 0.515}, {"type": "position", "time": 390512, "x": null, "y": 0.515}, {"type": "position", "time": 390556, "x": null, "y": 0.515}, {"type": "position", "time": 390618, "x": null, "y": 0.515}, {"type": "position", "time": 390665, "x": null, "y": 0.515}, {"type": "position", "time": 390718, "x": null, "y": 0.515}, {"type": "position", "time": 390765, "x": null, "y": 0.515}, {"type": "position", "time": 390819, "x": null, "y": 0.515}, {"type": "position", "time": 390855, "x": null, "y": 0.515}, {"type": "position", "time": 390920, "x": null, "y": 0.515}, {"type": "position", "time": 390958, "x": null, "y": 0.515}, {"type": "position", "time": 391006, "x": null, "y": 0.515}, {"type": "position", "time": 391069, "x": null, "y": 0.515}, {"type": "position", "time": 391119, "x": null, "y": 0.515}, {"type": "position", "time": 391155, "x": null, "y": 0.515}, {"type": "position", "time": 391220, "x": null, "y": 0.515}, {"type": "position", "time": 391267, "x": null, "y": 0.515}, {"type": "position", "time": 391318, "x": null, "y": 0.515}, {"type": "position", "time": 391367, "x": null, "y": 0.515}, {"type": "position", "time": 391406, "x": null, "y": 0.515}, {"type": "position", "time": 391470, "x": null, "y": 0.515}, {"type": "position", "time": 391508, "x": null, "y": 0.515}, {"type": "position", "time": 391570, "x": null, "y": 0.515}, {"type": "position", "time": 391620, "x": null, "y": 0.515}, {"type": "position", "time": 391670, "x": null, "y": 0.515}, {"type": "position", "time": 391720, "x": null, "y": 0.515}, {"type": "position", "time": 391766, "x": null, "y": 0.515}, {"type": "position", "time": 391811, "x": null, "y": 0.515}, {"type": "position", "time": 391858, "x": null, "y": 0.515}, {"type": "position", "time": 391906, "x": null, "y": 0.515}, {"type": "position", "time": 391957, "x": null, "y": 0.515}, {"type": "position", "time": 392006, "x": null, "y": 0.515}, {"type": "position", "time": 392069, "x": null, "y": 0.515}, {"type": "position", "time": 392145, "x": null, "y": 0.515}, {"type": "position", "time": 392156, "x": null, "y": 0.515}, {"type": "position", "time": 392221, "x": null, "y": 0.515}, {"type": "position", "time": 392267, "x": null, "y": 0.515}, {"type": "position", "time": 392311, "x": null, "y": 0.515}, {"type": "position", "time": 392358, "x": null, "y": 0.515}, {"type": "position", "time": 392414, "x": null, "y": 0.515}, {"type": "position", "time": 392456, "x": null, "y": 0.515}, {"type": "position", "time": 392519, "x": null, "y": 0.515}, {"type": "position", "time": 392566, "x": null, "y": 0.515}, {"type": "position", "time": 392613, "x": null, "y": 0.515}, {"type": "position", "time": 392660, "x": null, "y": 0.515}, {"type": "position", "time": 392707, "x": null, "y": 0.515}, {"type": "position", "time": 392756, "x": null, "y": 0.515}, {"type": "position", "time": 392818, "x": null, "y": 0.515}, {"type": "position", "time": 392865, "x": null, "y": 0.515}, {"type": "position", "time": 392912, "x": null, "y": 0.515}, {"type": "position", "time": 392959, "x": null, "y": 0.515}, {"type": "position", "time": 393006, "x": null, "y": 0.515}, {"type": "position", "time": 393069, "x": null, "y": 0.515}, {"type": "position", "time": 393116, "x": null, "y": 0.515}, {"type": "position", "time": 393163, "x": null, "y": 0.515}, {"type": "position", "time": 393210, "x": null, "y": 0.515}, {"type": "position", "time": 393256, "x": null, "y": 0.515}, {"type": "position", "time": 393318, "x": null, "y": 0.515}, {"type": "position", "time": 393394, "x": null, "y": 0.515}, {"type": "position", "time": 393405, "x": null, "y": 0.515}, {"type": "position", "time": 393470, "x": null, "y": 0.515}, {"type": "position", "time": 393506, "x": null, "y": 0.515}, {"type": "position", "time": 393570, "x": null, "y": 0.515}, {"type": "position", "time": 393617, "x": null, "y": 0.515}, {"type": "position", "time": 393669, "x": null, "y": 0.515}, {"type": "position", "time": 393716, "x": null, "y": 0.515}, {"type": "position", "time": 393770, "x": null, "y": 0.515}, {"type": "position", "time": 393816, "x": null, "y": 0.515}, {"type": "position", "time": 393863, "x": null, "y": 0.515}, {"type": "position", "time": 393910, "x": null, "y": 0.515}, {"type": "position", "time": 393957, "x": null, "y": 0.515}, {"type": "position", "time": 394007, "x": null, "y": 0.515}, {"type": "position", "time": 394070, "x": null, "y": 0.515}, {"type": "position", "time": 394117, "x": null, "y": 0.515}, {"type": "position", "time": 394149, "x": null, "y": 0.515}, {"type": "position", "time": 394220, "x": null, "y": 0.515}, {"type": "position", "time": 394271, "x": null, "y": 0.515}, {"type": "position", "time": 394318, "x": null, "y": 0.515}, {"type": "position", "time": 394365, "x": null, "y": 0.515}, {"type": "position", "time": 394412, "x": null, "y": 0.515}, {"type": "position", "time": 394459, "x": null, "y": 0.515}, {"type": "position", "time": 394511, "x": null, "y": 0.515}, {"type": "position", "time": 394558, "x": null, "y": 0.515}, {"type": "position", "time": 394621, "x": null, "y": 0.515}, {"type": "position", "time": 394667, "x": null, "y": 0.515}, {"type": "position", "time": 394714, "x": null, "y": 0.515}, {"type": "position", "time": 394756, "x": null, "y": 0.5116666666666667}, {"type": "position", "time": 394806, "x": null, "y": 0.5116666666666667}, {"type": "position", "time": 394870, "x": null, "y": 0.5116666666666667}, {"type": "position", "time": 394917, "x": null, "y": 0.5116666666666667}, {"type": "position", "time": 394964, "x": null, "y": 0.5116666666666667}, {"type": "position", "time": 395033, "x": null, "y": 0.5116666666666667}, {"type": "position", "time": 395056, "x": null, "y": 0.5116666666666667}, {"type": "position", "time": 395106, "x": null, "y": 0.5116666666666667}, {"type": "position", "time": 395170, "x": null, "y": 0.5116666666666667}, {"type": "position", "time": 395217, "x": null, "y": 0.5116666666666667}, {"type": "position", "time": 395264, "x": null, "y": 0.5116666666666667}, {"type": "position", "time": 395316, "x": null, "y": 0.5116666666666667}, {"type": "position", "time": 395362, "x": null, "y": 0.5116666666666667}, {"type": "position", "time": 395409, "x": null, "y": 0.5116666666666667}, {"type": "position", "time": 395456, "x": null, "y": 0.5116666666666667}, {"type": "position", "time": 395521, "x": null, "y": 0.5116666666666667}, {"type": "position", "time": 395569, "x": null, "y": 0.5116666666666667}, {"type": "position", "time": 395616, "x": null, "y": 0.5116666666666667}, {"type": "position", "time": 395655, "x": null, "y": 0.5116666666666667}, {"type": "position", "time": 395718, "x": null, "y": 0.5116666666666667}, {"type": "position", "time": 395765, "x": null, "y": 0.5116666666666667}, {"type": "position", "time": 395840, "x": null, "y": 0.5116666666666667}, {"type": "position", "time": 395857, "x": null, "y": 0.5116666666666667}, {"type": "position", "time": 395920, "x": null, "y": 0.5116666666666667}, {"type": "position", "time": 395967, "x": null, "y": 0.5116666666666667}, {"type": "position", "time": 396007, "x": null, "y": 0.5116666666666667}, {"type": "position", "time": 396070, "x": null, "y": 0.5116666666666667}, {"type": "position", "time": 396461, "x": null, "y": 0.5116666666666667}, {"type": "position", "time": 396521, "x": null, "y": 0.5116666666666667}, {"type": "position", "time": 396567, "x": null, "y": 0.5116666666666667}, {"type": "position", "time": 396614, "x": null, "y": 0.5116666666666667}, {"type": "position", "time": 396661, "x": null, "y": 0.5116666666666667}, {"type": "position", "time": 396706, "x": null, "y": 0.5116666666666667}, {"type": "position", "time": 396770, "x": null, "y": 0.5116666666666667}, {"type": "position", "time": 396816, "x": null, "y": 0.5116666666666667}, {"type": "position", "time": 396863, "x": null, "y": 0.5116666666666667}, {"type": "keyup", "time": 396905, "key": "\u0010", "keyCode": 16}, {"type": "position", "time": 396905, "x": null, "y": 0.5116666666666667}, {"type": "position", "time": 396956, "x": null, "y": 0.5116666666666667}, {"type": "keyup", "time": 396997, "key": "H", "keyCode": 72}, {"type": "position", "time": 397006, "x": null, "y": 0.5116666666666667}, {"type": "position", "time": 397056, "x": null, "y": 0.5116666666666667}, {"type": "keyup", "time": 397105, "key": "E", "keyCode": 69}, {"type": "position", "time": 397105, "x": null, "y": 0.5116666666666667}, {"type": "position", "time": 397167, "x": null, "y": 0.5116666666666667}, {"type": "position", "time": 397206, "x": null, "y": 0.5116666666666667}, {"type": "keyup", "time": 397238, "key": " ", "keyCode": 32}, {"type": "position", "time": 397270, "x": null, "y": 0.5116666666666667}, {"type": "position", "time": 397317, "x": null, "y": 0.5116666666666667}, {"type": "position", "time": 397363, "x": null, "y": 0.5116666666666667}, {"type": "position", "time": 397406, "x": null, "y": 0.5116666666666667}, {"type": "keyup", "time": 397443, "key": "W", "keyCode": 87}, {"type": "position", "time": 397456, "x": null, "y": 0.5116666666666667}, {"type": "position", "time": 397506, "x": null, "y": 0.5116666666666667}, {"type": "keyup", "time": 397555, "key": "O", "keyCode": 79}, {"type": "position", "time": 397555, "x": null, "y": 0.5116666666666667}, {"type": "position", "time": 397617, "x": null, "y": 0.5116666666666667}, {"type": "position", "time": 397664, "x": null, "y": 0.5116666666666667}, {"type": "position", "time": 397711, "x": null, "y": 0.5116666666666667}, {"type": "position", "time": 397758, "x": null, "y": 0.5116666666666667}, {"type": "position", "time": 397817, "x": null, "y": 0.5116666666666667}, {"type": "position", "time": 397864, "x": null, "y": 0.5116666666666667}, {"type": "position", "time": 397911, "x": null, "y": 0.5116666666666667}, {"type": "position", "time": 397958, "x": null, "y": 0.5116666666666667}, {"type": "position", "time": 398006, "x": null, "y": 0.5116666666666667}, {"type": "position", "time": 398056, "x": null, "y": 0.5116666666666667}, {"type": "position", "time": 398120, "x": null, "y": 0.5116666666666667}, {"type": "position", "time": 398166, "x": null, "y": 0.5116666666666667}, {"type": "position", "time": 398213, "x": null, "y": 0.5116666666666667}, {"type": "position", "time": 398257, "x": null, "y": 0.5116666666666667}, {"type": "position", "time": 398306, "x": null, "y": 0.5116666666666667}, {"type": "position", "time": 398368, "x": null, "y": 0.5116666666666667}, {"type": "keyup", "time": 398368, "key": "\b", "keyCode": 8}, {"type": "position", "time": 398415, "x": null, "y": 0.5116666666666667}, {"type": "position", "time": 398455, "x": null, "y": 0.5116666666666667}, {"type": "position", "time": 398520, "x": null, "y": 0.5116666666666667}, {"type": "position", "time": 398566, "x": null, "y": 0.5116666666666667}, {"type": "position", "time": 398613, "x": null, "y": 0.5116666666666667}, {"type": "position", "time": 398663, "x": null, "y": 0.5116666666666667}, {"type": "position", "time": 398710, "x": null, "y": 0.5116666666666667}, {"type": "position", "time": 398758, "x": null, "y": 0.5116666666666667}, {"type": "position", "time": 398806, "x": null, "y": 0.5116666666666667}, {"type": "position", "time": 398870, "x": null, "y": 0.5116666666666667}, {"type": "position", "time": 398916, "x": null, "y": 0.5116666666666667}, {"type": "position", "time": 398956, "x": null, "y": 0.5116666666666667}, {"type": "position", "time": 399006, "x": null, "y": 0.5116666666666667}, {"type": "keyup", "time": 399032, "key": "O", "keyCode": 79}, {"type": "position", "time": 399058, "x": null, "y": 0.5116666666666667}, {"type": "position", "time": 399106, "x": null, "y": 0.5116666666666667}, {"type": "position", "time": 399156, "x": null, "y": 0.5116666666666667}, {"type": "keyup", "time": 399172, "key": "R", "keyCode": 82}, {"type": "position", "time": 399219, "x": null, "y": 0.5116666666666667}, {"type": "keyup", "time": 399219, "key": "E", "keyCode": 69}, {"type": "position", "time": 399265, "x": null, "y": 0.5116666666666667}, {"type": "position", "time": 399312, "x": null, "y": 0.5116666666666667}, {"type": "position", "time": 399362, "x": null, "y": 0.5116666666666667}, {"type": "position", "time": 399409, "x": null, "y": 0.5116666666666667}, {"type": "position", "time": 399456, "x": null, "y": 0.5116666666666667}, {"type": "position", "time": 399520, "x": null, "y": 0.5116666666666667}, {"type": "position", "time": 399567, "x": null, "y": 0.5116666666666667}, {"type": "position", "time": 399613, "x": null, "y": 0.5116666666666667}, {"type": "position", "time": 399656, "x": null, "y": 0.5116666666666667}, {"type": "position", "time": 399720, "x": null, "y": 0.5116666666666667}, {"type": "position", "time": 399767, "x": null, "y": 0.5116666666666667}, {"type": "position", "time": 399814, "x": null, "y": 0.5116666666666667}, {"type": "position", "time": 399861, "x": null, "y": 0.5116666666666667}, {"type": "position", "time": 399907, "x": null, "y": 0.5116666666666667}, {"type": "position", "time": 399970, "x": null, "y": 0.5116666666666667}, {"type": "position", "time": 400008, "x": null, "y": 0.5116666666666667}, {"type": "position", "time": 400056, "x": null, "y": 0.5116666666666667}, {"type": "position", "time": 400120, "x": null, "y": 0.5116666666666667}, {"type": "position", "time": 400161, "x": null, "y": 0.5116666666666667}, {"type": "position", "time": 400206, "x": null, "y": 0.5116666666666667}, {"type": "keyup", "time": 400252, "key": " ", "keyCode": 32}, {"type": "position", "time": 400252, "x": null, "y": 0.5116666666666667}, {"type": "position", "time": 400315, "x": null, "y": 0.5116666666666667}, {"type": "position", "time": 400357, "x": null, "y": 0.5116666666666667}, {"type": "position", "time": 400420, "x": null, "y": 0.5116666666666667}, {"type": "position", "time": 400456, "x": null, "y": 0.5116666666666667}, {"type": "keyup", "time": 400458, "key": "C", "keyCode": 67}, {"type": "keyup", "time": 400489, "key": "L", "keyCode": 76}, {"type": "position", "time": 400520, "x": null, "y": 0.5116666666666667}, {"type": "position", "time": 400567, "x": null, "y": 0.5116666666666667}, {"type": "position", "time": 400606, "x": null, "y": 0.5116666666666667}, {"type": "keyup", "time": 400639, "key": "O", "keyCode": 79}, {"type": "position", "time": 400671, "x": null, "y": 0.5116666666666667}, {"type": "position", "time": 400718, "x": null, "y": 0.5116666666666667}, {"type": "position", "time": 400756, "x": null, "y": 0.5116666666666667}, {"type": "position", "time": 400806, "x": null, "y": 0.5116666666666667}, {"type": "keyup", "time": 400839, "key": "T", "keyCode": 84}, {"type": "position", "time": 400870, "x": null, "y": 0.5116666666666667}, {"type": "keyup", "time": 400886, "key": "H", "keyCode": 72}, {"type": "position", "time": 400917, "x": null, "y": 0.5116666666666667}, {"type": "position", "time": 400964, "x": null, "y": 0.5116666666666667}, {"type": "position", "time": 401009, "x": null, "y": 0.5116666666666667}, {"type": "position", "time": 401056, "x": null, "y": 0.5116666666666667}, {"type": "position", "time": 401106, "x": null, "y": 0.5116666666666667}, {"type": "keyup", "time": 401107, "key": "I", "keyCode": 73}, {"type": "position", "time": 401156, "x": null, "y": 0.5116666666666667}, {"type": "keyup", "time": 401165, "key": "N", "keyCode": 78}, {"type": "position", "time": 401220, "x": null, "y": 0.5116666666666667}, {"type": "keyup", "time": 401236, "key": "G", "keyCode": 71}, {"type": "position", "time": 401267, "x": null, "y": 0.5116666666666667}, {"type": "position", "time": 401306, "x": null, "y": 0.5116666666666667}, {"type": "keyup", "time": 401323, "key": " ", "keyCode": 32}, {"type": "position", "time": 401361, "x": null, "y": 0.5116666666666667}, {"type": "position", "time": 401406, "x": null, "y": 0.5116666666666667}, {"type": "position", "time": 401456, "x": null, "y": 0.5116666666666667}, {"type": "keyup", "time": 401489, "key": "T", "keyCode": 84}, {"type": "position", "time": 401520, "x": null, "y": 0.5116666666666667}, {"type": "keyup", "time": 401520, "key": "H", "keyCode": 72}, {"type": "position", "time": 401567, "x": null, "y": 0.5116666666666667}, {"type": "position", "time": 401607, "x": null, "y": 0.5116666666666667}, {"type": "position", "time": 401656, "x": null, "y": 0.5116666666666667}, {"type": "keyup", "time": 401688, "key": "A", "keyCode": 65}, {"type": "position", "time": 401720, "x": null, "y": 0.5116666666666667}, {"type": "keyup", "time": 401735, "key": "T", "keyCode": 84}, {"type": "position", "time": 401756, "x": null, "y": 0.5116666666666667}, {"type": "position", "time": 401806, "x": null, "y": 0.5116666666666667}, {"type": "keyup", "time": 401806, "key": " ", "keyCode": 32}, {"type": "position", "time": 401868, "x": null, "y": 0.5116666666666667}, {"type": "position", "time": 401908, "x": null, "y": 0.5116666666666667}, {"type": "position", "time": 401956, "x": null, "y": 0.5116666666666667}, {"type": "keyup", "time": 401987, "key": "C", "keyCode": 67}, {"type": "position", "time": 402008, "x": null, "y": 0.5116666666666667}, {"type": "position", "time": 402056, "x": null, "y": 0.5116666666666667}, {"type": "keyup", "time": 402089, "key": "O", "keyCode": 79}, {"type": "position", "time": 402105, "x": null, "y": 0.5116666666666667}, {"type": "position", "time": 402192, "x": null, "y": 0.5116666666666667}, {"type": "position", "time": 402206, "x": null, "y": 0.5116666666666667}, {"type": "position", "time": 402270, "x": null, "y": 0.5116666666666667}, {"type": "position", "time": 402317, "x": null, "y": 0.5116666666666667}, {"type": "position", "time": 402364, "x": null, "y": 0.5116666666666667}, {"type": "position", "time": 402411, "x": null, "y": 0.5116666666666667}, {"type": "position", "time": 402456, "x": null, "y": 0.5116666666666667}, {"type": "position", "time": 402506, "x": null, "y": 0.5116666666666667}, {"type": "keyup", "time": 402506, "key": "V", "keyCode": 86}, {"type": "position", "time": 402556, "x": null, "y": 0.5116666666666667}, {"type": "position", "time": 402620, "x": null, "y": 0.5116666666666667}, {"type": "position", "time": 402656, "x": null, "y": 0.5116666666666667}, {"type": "keyup", "time": 402673, "key": "E", "keyCode": 69}, {"type": "position", "time": 402720, "x": null, "y": 0.5116666666666667}, {"type": "position", "time": 402764, "x": null, "y": 0.5116666666666667}, {"type": "keyup", "time": 402786, "key": "R", "keyCode": 82}, {"type": "position", "time": 402806, "x": null, "y": 0.5116666666666667}, {"type": "keyup", "time": 402837, "key": "E", "keyCode": 69}, {"type": "position", "time": 402868, "x": null, "y": 0.5116666666666667}, {"type": "position", "time": 402915, "x": null, "y": 0.5116666666666667}, {"type": "position", "time": 402982, "x": null, "y": 0.5116666666666667}, {"type": "position", "time": 403007, "x": null, "y": 0.5116666666666667}, {"type": "keyup", "time": 403035, "key": "D", "keyCode": 68}, {"type": "position", "time": 403056, "x": null, "y": 0.5116666666666667}, {"type": "keyup", "time": 403089, "key": " ", "keyCode": 32}, {"type": "position", "time": 403120, "x": null, "y": 0.5116666666666667}, {"type": "position", "time": 403167, "x": null, "y": 0.5116666666666667}, {"type": "position", "time": 403214, "x": null, "y": 0.5116666666666667}, {"type": "position", "time": 403256, "x": null, "y": 0.5116666666666667}, {"type": "position", "time": 403309, "x": null, "y": 0.5116666666666667}, {"type": "keyup", "time": 403336, "key": "H", "keyCode": 72}, {"type": "position", "time": 403357, "x": null, "y": 0.5116666666666667}, {"type": "keyup", "time": 403373, "key": "I", "keyCode": 73}, {"type": "position", "time": 403408, "x": null, "y": 0.5116666666666667}, {"type": "position", "time": 403456, "x": null, "y": 0.5116666666666667}, {"type": "keyup", "time": 403487, "key": "S", "keyCode": 83}, {"type": "position", "time": 403519, "x": null, "y": 0.5116666666666667}, {"type": "position", "time": 403557, "x": null, "y": 0.5116666666666667}, {"type": "position", "time": 403606, "x": null, "y": 0.5116666666666667}, {"type": "keyup", "time": 403621, "key": " ", "keyCode": 32}, {"type": "position", "time": 403668, "x": null, "y": 0.5116666666666667}, {"type": "position", "time": 403715, "x": null, "y": 0.5116666666666667}, {"type": "position", "time": 403756, "x": null, "y": 0.5116666666666667}, {"type": "keyup", "time": 403827, "key": "B", "keyCode": 66}, {"type": "position", "time": 403829, "x": null, "y": 0.5116666666666667}, {"type": "position", "time": 403857, "x": null, "y": 0.5116666666666667}, {"type": "position", "time": 403906, "x": null, "y": 0.5116666666666667}, {"type": "position", "time": 403957, "x": null, "y": 0.5116666666666667}, {"type": "keyup", "time": 403972, "key": "O", "keyCode": 79}, {"type": "position", "time": 404009, "x": null, "y": 0.5116666666666667}, {"type": "position", "time": 404056, "x": null, "y": 0.5116666666666667}, {"type": "keyup", "time": 404094, "key": "D", "keyCode": 68}, {"type": "position", "time": 404109, "x": null, "y": 0.5116666666666667}, {"type": "position", "time": 404157, "x": null, "y": 0.5116666666666667}, {"type": "position", "time": 404206, "x": null, "y": 0.5116666666666667}, {"type": "keyup", "time": 404206, "key": "Y", "keyCode": 89}, {"type": "position", "time": 404269, "x": null, "y": 0.5116666666666667}, {"type": "position", "time": 404316, "x": null, "y": 0.5116666666666667}, {"type": "position", "time": 404363, "x": null, "y": 0.5116666666666667}, {"type": "position", "time": 404410, "x": null, "y": 0.5116666666666667}, {"type": "position", "time": 404456, "x": null, "y": 0.5116666666666667}, {"type": "position", "time": 404519, "x": null, "y": 0.5116666666666667}, {"type": "position", "time": 404566, "x": null, "y": 0.5116666666666667}, {"type": "position", "time": 404612, "x": null, "y": 0.5116666666666667}, {"type": "position", "time": 404