{"ApprovalTime": "2016-03-10T22:10:27Z", "SubmitTime": "2016-03-10T22:06:18Z", "AssignmentId": "3FDJT1UU748BZ1SGKM09H0H82FT5KR", "HITId": "38G0E1M85M53D7EEUOHN21OJ7HQVU5", "answers": {"data": {"trials": [{"story": "beach", "time": 8876, "name": "Kristen", "rt": 7221, "blocknum": 0, "qtype": "probability", "response": 0.19, "trialnum": 1, "gender": "female", "qnum": 0}, {"story": "beach", "time": 8876, "name": "Kristen", "rt": 7221, "blocknum": 0, "qtype": "ungrammatical", "trialnum": 1, "gender": "female", "qnum": 0}, {"story": "beach", "time": 15705, "name": "Vanessa", "rt": 6827, "blocknum": 0, "qtype": "explanation", "response": "it was cloudy", "trialnum": 2, "gender": "female", "qnum": 1}, {"story": "beach", "time": 20893, "name": "Vanessa", "rt": 5182, "blocknum": 0, "qtype": "probability", "response": 0.21, "trialnum": 3, "gender": "female", "qnum": 2}, {"story": "beach", "time": 20893, "name": "Vanessa", "rt": 5182, "blocknum": 0, "qtype": "ungrammatical", "trialnum": 3, "gender": "female", "qnum": 2}, {"story": "beach", "time": 22877, "name": "Juan", "rt": 1979, "blocknum": 0, "qtype": "probability", "response": 0.28, "trialnum": 4, "gender": "male", "qnum": 3}, {"story": "beach", "time": 22877, "name": "Juan", "rt": 1979, "blocknum": 0, "qtype": "ungrammatical", "response": false, "trialnum": 4, "gender": "male", "qnum": 3}, {"story": "beach", "time": 30413, "name": "Michael", "rt": 7533, "blocknum": 0, "qtype": "probability", "response": 0.19, "trialnum": 5, "gender": "male", "qnum": 4}, {"story": "beach", "time": 30413, "name": "Michael", "rt": 7533, "blocknum": 0, "qtype": "ungrammatical", "response": true, "trialnum": 5, "gender": "male", "qnum": 4}, {"story": "beach", "time": 33275, "name": "Cameron", "rt": 2860, "blocknum": 0, "qtype": "probability", "response": 0.28, "trialnum": 6, "gender": "male", "qnum": 5}, {"story": "beach", "time": 33275, "name": "Cameron", "rt": 2860, "blocknum": 0, "qtype": "ungrammatical", "response": false, "trialnum": 6, "gender": "male", "qnum": 5}, {"story": "coffee", "time": 37249, "name": "Christina", "rt": 3971, "blocknum": 1, "qtype": "probability", "response": 0.84, "trialnum": 8, "gender": "female", "qnum": 0}, {"story": "coffee", "time": 37249, "name": "Christina", "rt": 3971, "blocknum": 1, "qtype": "ungrammatical", "trialnum": 8, "gender": "female", "qnum": 0}, {"story": "coffee", "time": 45042, "name": "Kaitlyn", "rt": 7792, "blocknum": 1, "qtype": "explanation", "response": "she was very tired", "trialnum": 9, "gender": "female", "qnum": 1}, {"story": "coffee", "time": 47998, "name": "Kaitlyn", "rt": 2953, "blocknum": 1, "qtype": "probability", "response": 0.3, "trialnum": 10, "gender": "female", "qnum": 2}, {"story": "coffee", "time": 47998, "name": "Kaitlyn", "rt": 2953, "blocknum": 1, "qtype": "ungrammatical", "trialnum": 10, "gender": "female", "qnum": 2}, {"story": "coffee", "time": 57214, "name": "Aaron", "rt": 9214, "blocknum": 1, "qtype": "probability", "response": 0.5, "trialnum": 11, "gender": "male", "qnum": 3}, {"story": "coffee", "time": 57214, "name": "Aaron", "rt": 9214, "blocknum": 1, "qtype": "ungrammatical", "response": true, "trialnum": 11, "gender": "male", "qnum": 3}, {"story": "coffee", "time": 59360, "name": "Samuel", "rt": 2144, "blocknum": 1, "qtype": "probability", "response": 0.26, "trialnum": 12, "gender": "male", "qnum": 4}, {"story": "coffee", "time": 59360, "name": "Samuel", "rt": 2144, "blocknum": 1, "qtype": "ungrammatical", "response": false, "trialnum": 12, "gender": "male", "qnum": 4}, {"story": "coffee", "time": 62750, "name": "Corey", "rt": 3388, "blocknum": 1, "qtype": "probability", "response": 0.22, "trialnum": 13, "gender": "male", "qnum": 5}, {"story": "coffee", "time": 62750, "name": "Corey", "rt": 3388, "blocknum": 1, "qtype": "ungrammatical", "response": false, "trialnum": 13, "gender": "male", "qnum": 5}, {"story": "painting", "time": 64648, "name": "Timothy", "rt": 1895, "blocknum": 2, "qtype": "probability", "response": 0.75, "trialnum": 15, "gender": "male", "qnum": 0}, {"story": "painting", "time": 64648, "name": "Timothy", "rt": 1895, "blocknum": 2, "qtype": "ungrammatical", "trialnum": 15, "gender": "male", "qnum": 0}, {"story": "painting", "time": 69218, "name": "Paul", "rt": 4569, "blocknum": 2, "qtype": "explanation", "response": "he was careful", "trialnum": 16, "gender": "male", "qnum": 1}, {"story": "painting", "time": 71819, "name": "Paul", "rt": 2599, "blocknum": 2, "qtype": "probability", "response": 0.77, "trialnum": 17, "gender": "male", "qnum": 2}, {"story": "painting", "time": 71819, "name": "Paul", "rt": 2599, "blocknum": 2, "qtype": "ungrammatical", "trialnum": 17, "gender": "male", "qnum": 2}, {"story": "painting", "time": 77667, "name": "Alexandra", "rt": 5845, "blocknum": 2, "qtype": "probability", "response": 0.82, "trialnum": 18, "gender": "female", "qnum": 3}, {"story": "painting", "time": 77667, "name": "Alexandra", "rt": 5845, "blocknum": 2, "qtype": "ungrammatical", "response": false, "trialnum": 18, "gender": "female", "qnum": 3}, {"story": "painting", "time": 80467, "name": "Kevin", "rt": 2797, "blocknum": 2, "qtype": "probability", "response": 0.77, "trialnum": 19, "gender": "male", "qnum": 4}, {"story": "painting", "time": 80467, "name": "Kevin", "rt": 2797, "blocknum": 2, "qtype": "ungrammatical", "response": false, "trialnum": 19, "gender": "male", "qnum": 4}, {"story": "painting", "time": 82279, "name": "Joshua", "rt": 1808, "blocknum": 2, "qtype": "probability", "response": 0.83, "trialnum": 20, "gender": "male", "qnum": 5}, {"story": "painting", "time": 82279, "name": "Joshua", "rt": 1808, "blocknum": 2, "qtype": "ungrammatical", "response": false, "trialnum": 20, "gender": "male", "qnum": 5}, {"story": "Japan", "time": 86059, "name": "Lindsey", "rt": 3776, "blocknum": 3, "qtype": "probability", "response": 0.67, "trialnum": 22, "gender": "female", "qnum": 0}, {"story": "Japan", "time": 86059, "name": "Lindsey", "rt": 3776, "blocknum": 3, "qtype": "ungrammatical", "trialnum": 22, "gender": "female", "qnum": 0}, {"story": "Japan", "time": 91880, "name": "Sarah", "rt": 5820, "blocknum": 3, "qtype": "explanation", "response": "she was alone", "trialnum": 23, "gender": "female", "qnum": 1}, {"story": "Japan", "time": 94396, "name": "Sarah", "rt": 2513, "blocknum": 3, "qtype": "probability", "response": 0.7, "trialnum": 24, "gender": "female", "qnum": 2}, {"story": "Japan", "time": 94396, "name": "Sarah", "rt": 2513, "blocknum": 3, "qtype": "ungrammatical", "trialnum": 24, "gender": "female", "qnum": 2}, {"story": "Japan", "time": 98012, "name": "Amy", "rt": 3613, "blocknum": 3, "qtype": "probability", "response": 0.75, "trialnum": 25, "gender": "female", "qnum": 3}, {"story": "Japan", "time": 98012, "name": "Amy", "rt": 3613, "blocknum": 3, "qtype": "ungrammatical", "response": false, "trialnum": 25, "gender": "female", "qnum": 3}, {"story": "Japan", "time": 99832, "name": "Melissa", "rt": 1817, "blocknum": 3, "qtype": "probability", "response": 0.83, "trialnum": 26, "gender": "female", "qnum": 4}, {"story": "Japan", "time": 99832, "name": "Melissa", "rt": 1817, "blocknum": 3, "qtype": "ungrammatical", "response": false, "trialnum": 26, "gender": "female", "qnum": 4}, {"story": "Japan", "time": 101830, "name": "Sean", "rt": 1996, "blocknum": 3, "qtype": "probability", "response": 0.77, "trialnum": 27, "gender": "male", "qnum": 5}, {"story": "Japan", "time": 101830, "name": "Sean", "rt": 1996, "blocknum": 3, "qtype": "ungrammatical", "response": false, "trialnum": 27, "gender": "male", "qnum": 5}, {"story": "cooking", "time": 103138, "name": "Ian", "rt": 1305, "blocknum": 4, "qtype": "probability", "response": 0.78, "trialnum": 29, "gender": "male", "qnum": 0}, {"story": "cooking", "time": 103138, "name": "Ian", "rt": 1305, "blocknum": 4, "qtype": "ungrammatical", "trialnum": 29, "gender": "male", "qnum": 0}, {"story": "cooking", "time": 106131, "name": "Bradley", "rt": 2992, "blocknum": 4, "qtype": "explanation", "response": "he was shy", "trialnum": 30, "gender": "male", "qnum": 1}, {"story": "cooking", "time": 107212, "name": "Bradley", "rt": 1079, "blocknum": 4, "qtype": "probability", "response": 0.77, "trialnum": 31, "gender": "male", "qnum": 2}, {"story": "cooking", "time": 107212, "name": "Bradley", "rt": 1079, "blocknum": 4, "qtype": "ungrammatical", "trialnum": 31, "gender": "male", "qnum": 2}, {"story": "cooking", "time": 108324, "name": "Jared", "rt": 1109, "blocknum": 4, "qtype": "probability", "response": 0.77, "trialnum": 32, "gender": "male", "qnum": 3}, {"story": "cooking", "time": 108324, "name": "Jared", "rt": 1109, "blocknum": 4, "qtype": "ungrammatical", "response": false, "trialnum": 32, "gender": "male", "qnum": 3}, {"story": "cooking", "time": 109624, "name": "Erica", "rt": 1297, "blocknum": 4, "qtype": "probability", "response": 0.8, "trialnum": 33, "gender": "female", "qnum": 4}, {"story": "cooking", "time": 109624, "name": "Erica", "rt": 1297, "blocknum": 4, "qtype": "ungrammatical", "response": false, "trialnum": 33, "gender": "female", "qnum": 4}, {"story": "cooking", "time": 110946, "name": "Jacob", "rt": 1320, "blocknum": 4, "qtype": "probability", "response": 0.73, "trialnum": 34, "gender": "male", "qnum": 5}, {"story": "cooking", "time": 110946, "name": "Jacob", "rt": 1320, "blocknum": 4, "qtype": "ungrammatical", "response": false, "trialnum": 34, "gender": "male", "qnum": 5}, {"story": "insomnia", "time": 113668, "name": "Nicole", "rt": 2720, "blocknum": 5, "qtype": "probability", "response": 0.4, "trialnum": 36, "gender": "female", "qnum": 0}, {"story": "insomnia", "time": 113668, "name": "Nicole", "rt": 2720, "blocknum": 5, "qtype": "ungrammatical", "trialnum": 36, "gender": "female", "qnum": 0}, {"story": "insomnia", "time": 124006, "name": "Gabriel", "rt": 10337, "blocknum": 5, "qtype": "explanation", "response": "he was able to control his thoughts", "trialnum": 37, "gender": "male", "qnum": 1}, {"story": "insomnia", "time": 126681, "name": "Gabriel", "rt": 2673, "blocknum": 5, "qtype": "probability", "response": 0.28, "trialnum": 38, "gender": "male", "qnum": 2}, {"story": "insomnia", "time": 126681, "name": "Gabriel", "rt": 2673, "blocknum": 5, "qtype": "ungrammatical", "trialnum": 38, "gender": "male", "qnum": 2}, {"story": "insomnia", "time": 130615, "name": "Brian", "rt": 3931, "blocknum": 5, "qtype": "probability", "response": 0.52, "trialnum": 39, "gender": "male", "qnum": 3}, {"story": "insomnia", "time": 130615, "name": "Brian", "rt": 3931, "blocknum": 5, "qtype": "ungrammatical", "response": false, "trialnum": 39, "gender": "male", "qnum": 3}, {"story": "insomnia", "time": 131673, "name": "Brianna", "rt": 1055, "blocknum": 5, "qtype": "probability", "response": 0.53, "trialnum": 40, "gender": "female", "qnum": 4}, {"story": "insomnia", "time": 131673, "name": "Brianna", "rt": 1055, "blocknum": 5, "qtype": "ungrammatical", "response": false, "trialnum": 40, "gender": "female", "qnum": 4}, {"story": "insomnia", "time": 134193, "name": "Savannah", "rt": 2517, "blocknum": 5, "qtype": "probability", "response": 0.18, "trialnum": 41, "gender": "female", "qnum": 5}, {"story": "insomnia", "time": 134193, "name": "Savannah", "rt": 2517, "blocknum": 5, "qtype": "ungrammatical", "response": false, "trialnum": 41, "gender": "female", "qnum": 5}, {"story": "reading", "time": 139475, "name": "Jenna", "rt": 5279, "blocknum": 6, "qtype": "probability", "response": 0.62, "trialnum": 43, "gender": "female", "qnum": 0}, {"story": "reading", "time": 139475, "name": "Jenna", "rt": 5279, "blocknum": 6, "qtype": "ungrammatical", "trialnum": 43, "gender": "female", "qnum": 0}, {"story": "reading", "time": 148756, "name": "Rebecca", "rt": 9280, "blocknum": 6, "qtype": "explanation", "response": "she read a book that was dumbed down", "trialnum": 44, "gender": "female", "qnum": 1}, {"story": "reading", "time": 152162, "name": "Rebecca", "rt": 3404, "blocknum": 6, "qtype": "probability", "response": 0.4, "trialnum": 45, "gender": "female", "qnum": 2}, {"story": "reading", "time": 152162, "name": "Rebecca", "rt": 3404, "blocknum": 6, "qtype": "ungrammatical", "trialnum": 45, "gender": "female", "qnum": 2}, {"story": "reading", "time": 153926, "name": "Alexander", "rt": 1761, "blocknum": 6, "qtype": "probability", "response": 0.46, "trialnum": 46, "gender": "male", "qnum": 3}, {"story": "reading", "time": 153926, "name": "Alexander", "rt": 1761, "blocknum": 6, "qtype": "ungrammatical", "response": false, "trialnum": 46, "gender": "male", "qnum": 3}, {"story": "reading", "time": 154814, "name": "Danielle", "rt": 886, "blocknum": 6, "qtype": "probability", "response": 0.5, "trialnum": 47, "gender": "female", "qnum": 4}, {"story": "reading", "time": 154814, "name": "Danielle", "rt": 886, "blocknum": 6, "qtype": "ungrammatical", "response": false, "trialnum": 47, "gender": "female", "qnum": 4}, {"story": "reading", "time": 156018, "name": "Jose", "rt": 1202, "blocknum": 6, "qtype": "probability", "response": 0.52, "trialnum": 48, "gender": "male", "qnum": 5}, {"story": "reading", "time": 156018, "name": "Jose", "rt": 1202, "blocknum": 6, "qtype": "ungrammatical", "response": false, "trialnum": 48, "gender": "male", "qnum": 5}, {"story": "fitness", "time": 157808, "name": "Jason", "rt": 1785, "blocknum": 7, "qtype": "probability", "response": 0.7, "trialnum": 50, "gender": "male", "qnum": 0}, {"story": "fitness", "time": 157808, "name": "Jason", "rt": 1785, "blocknum": 7, "qtype": "ungrammatical", "trialnum": 50, "gender": "male", "qnum": 0}, {"story": "fitness", "time": 165744, "name": "Trevor", "rt": 7935, "blocknum": 7, "qtype": "explanation", "response": "he did not try", "trialnum": 51, "gender": "male", "qnum": 1}, {"story": "fitness", "time": 167368, "name": "Trevor", "rt": 1622, "blocknum": 7, "qtype": "probability", "response": 0.62, "trialnum": 52, "gender": "male", "qnum": 2}, {"story": "fitness", "time": 167368, "name": "Trevor", "rt": 1622, "blocknum": 7, "qtype": "ungrammatical", "trialnum": 52, "gender": "male", "qnum": 2}, {"story": "fitness", "time": 168394, "name": "Kim", "rt": 1024, "blocknum": 7, "qtype": "probability", "response": 0.54, "trialnum": 53, "gender": "female", "qnum": 3}, {"story": "fitness", "time": 168394, "name": "Kim", "rt": 1024, "blocknum": 7, "qtype": "ungrammatical", "response": false, "trialnum": 53, "gender": "female", "qnum": 3}, {"story": "fitness", "time": 171605, "name": "Rachel", "rt": 3209, "blocknum": 7, "qtype": "probability", "response": 0.23, "trialnum": 54, "gender": "female", "qnum": 4}, {"story": "fitness", "time": 171605, "name": "Rachel", "rt": 3209, "blocknum": 7, "qtype": "ungrammatical", "response": false, "trialnum": 54, "gender": "female", "qnum": 4}, {"story": "fitness", "time": 173075, "name": "Victoria", "rt": 1467, "blocknum": 7, "qtype": "probability", "response": 0.25, "trialnum": 55, "gender": "female", "qnum": 5}, {"story": "fitness", "time": 173075, "name": "Victoria", "rt": 1467, "blocknum": 7, "qtype": "ungrammatical", "response": false, "trialnum": 55, "gender": "female", "qnum": 5}, {"story": "guitar", "time": 175907, "name": "Paige", "rt": 2829, "blocknum": 8, "qtype": "probability", "response": 0.63, "trialnum": 57, "gender": "female", "qnum": 0}, {"story": "guitar", "time": 175907, "name": "Paige", "rt": 2829, "blocknum": 8, "qtype": "ungrammatical", "trialnum": 57, "gender": "female", "qnum": 0}, {"story": "guitar", "time": 180406, "name": "Steven", "rt": 4498, "blocknum": 8, "qtype": "explanation", "response": "he was not creative", "trialnum": 58, "gender": "male", "qnum": 1}, {"story": "guitar", "time": 182869, "name": "Steven", "rt": 2461, "blocknum": 8, "qtype": "probability", "response": 0.66, "trialnum": 59, "gender": "male", "qnum": 2}, {"story": "guitar", "time": 182869, "name": "Steven", "rt": 2461, "blocknum": 8, "qtype": "ungrammatical", "trialnum": 59, "gender": "male", "qnum": 2}, {"story": "guitar", "time": 186127, "name": "Anna", "rt": 3256, "blocknum": 8, "qtype": "probability", "response": 0.73, "trialnum": 60, "gender": "female", "qnum": 3}, {"story": "guitar", "time": 186127, "name": "Anna", "rt": 3256, "blocknum": 8, "qtype": "ungrammatical", "response": false, "trialnum": 60, "gender": "female", "qnum": 3}, {"story": "guitar", "time": 187753, "name": "Zach", "rt": 1624, "blocknum": 8, "qtype": "probability", "response": 0.64, "trialnum": 61, "gender": "male", "qnum": 4}, {"story": "guitar", "time": 187753, "name": "Zach", "rt": 1624, "blocknum": 8, "qtype": "ungrammatical", "response": false, "trialnum": 61, "gender": "male", "qnum": 4}, {"story": "guitar", "time": 189059, "name": "Kelly", "rt": 1304, "blocknum": 8, "qtype": "probability", "response": 0.64, "trialnum": 62, "gender": "female", "qnum": 5}, {"story": "guitar", "time": 189059, "name": "Kelly", "rt": 1304, "blocknum": 8, "qtype": "ungrammatical", "response": false, "trialnum": 62, "gender": "female", "qnum": 5}], "events": [{"type": "position", "time": 70, "x": 0, "y": 0}, {"type": "position", "time": 112, "x": 0, "y": 0}, {"type": "position", "time": 158, "x": 0, "y": 0}, {"type": "position", "time": 208, "x": 0, "y": 0}, {"type": "position", "time": 259, "x": 0, "y": 0}, {"type": "position", "time": 311, "x": 0, "y": 0}, {"type": "position", "time": 362, "x": 0, "y": 0}, {"type": "position", "time": 412, "x": 0, "y": 0}, {"type": "position", "time": 460, "x": 0, "y": 0}, {"type": "position", "time": 511, "x": 0, "y": 0}, {"type": "position", "time": 572, "x": null, "y": 0.051666666666666666}, {"type": "position", "time": 609, "x": null, "y": 0.14}, {"type": "position", "time": 659, "x": null, "y": 0.17666666666666667}, {"type": "position", "time": 709, "x": null, "y": 0.19833333333333333}, {"type": "position", "time": 758, "x": null, "y": 0.25333333333333335}, {"type": "position", "time": 808, "x": null, "y": 0.2866666666666667}, {"type": "position", "time": 859, "x": null, "y": 0.2966666666666667}, {"type": "position", "time": 909, "x": null, "y": 0.31333333333333335}, {"type": "position", "time": 961, "x": null, "y": 0.32666666666666666}, {"type": "position", "time": 1008, "x": null, "y": 0.345}, {"type": "position", "time": 1059, "x": null, "y": 0.3566666666666667}, {"type": "position", "time": 1110, "x": null, "y": 0.37666666666666665}, {"type": "position", "time": 1159, "x": null, "y": 0.4066666666666667}, {"type": "position", "time": 1209, "x": null, "y": 0.45}, {"type": "position", "time": 1258, "x": null, "y": 0.465}, {"type": "position", "time": 1308, "x": null, "y": 0.48}, {"type": "position", "time": 1358, "x": null, "y": 0.49166666666666664}, {"type": "position", "time": 1409, "x": null, "y": 0.49833333333333335}, {"type": "position", "time": 1462, "x": null, "y": 0.49833333333333335}, {"type": "position", "time": 1510, "x": null, "y": 0.49666666666666665}, {"type": "position", "time": 1563, "x": null, "y": 0.495}, {"type": "position", "time": 1609, "x": null, "y": 0.495}, {"type": "click", "time": 1655, "x": null, "y": 0.495}, {"type": "position", "time": 1658, "x": null, "y": 0.495}, {"type": "position", "time": 1708, "x": null, "y": 0.49666666666666665}, {"type": "position", "time": 1758, "x": null, "y": 0.49833333333333335}, {"type": "position", "time": 1811, "x": null, "y": 0.49833333333333335}, {"type": "position", "time": 1861, "x": null, "y": 0.49833333333333335}, {"type": "position", "time": 1909, "x": null, "y": 0.49833333333333335}, {"type": "position", "time": 1961, "x": null, "y": 0.49833333333333335}, {"type": "position", "time": 2008, "x": null, "y": 0.48}, {"type": "position", "time": 2059, "x": null, "y": 0.385}, {"type": "position", "time": 2108, "x": null, "y": 0.3516666666666667}, {"type": "position", "time": 2159, "x": null, "y": 0.355}, {"type": "position", "time": 2208, "x": null, "y": 0.4533333333333333}, {"type": "position", "time": 2259, "x": null, "y": 0.56}, {"type": "position", "time": 2309, "x": null, "y": 0.5766666666666667}, {"type": "position", "time": 2358, "x": null, "y": 0.5783333333333334}, {"type": "position", "time": 2408, "x": null, "y": 0.5766666666666667}, {"type": "position", "time": 2458, "x": null, "y": 0.5666666666666667}, {"type": "position", "time": 2508, "x": null, "y": 0.56}, {"type": "position", "time": 2559, "x": null, "y": 0.5583333333333333}, {"type": "position", "time": 2610, "x": null, "y": 0.5583333333333333}, {"type": "position", "time": 2659, "x": null, "y": 0.5583333333333333}, {"type": "position", "time": 2709, "x": null, "y": 0.56}, {"type": "position", "time": 2760, "x": null, "y": 0.5633333333333334}, {"type": "position", "time": 2809, "x": null, "y": 0.5666666666666667}, {"type": "position", "time": 2859, "x": null, "y": 0.5666666666666667}, {"type": "position", "time": 2908, "x": null, "y": 0.5683333333333334}, {"type": "position", "time": 2958, "x": null, "y": 0.5683333333333334}, {"type": "position", "time": 3011, "x": null, "y": 0.5666666666666667}, {"type": "position", "time": 3058, "x": null, "y": 0.5666666666666667}, {"type": "position", "time": 3108, "x": null, "y": 0.5716666666666667}, {"type": "position", "time": 3159, "x": null, "y": 0.5833333333333334}, {"type": "position", "time": 3208, "x": null, "y": 0.5883333333333334}, {"type": "position", "time": 3260, "x": null, "y": 0.6033333333333334}, {"type": "position", "time": 3310, "x": null, "y": 0.625}, {"type": "position", "time": 3359, "x": null, "y": 0.64}, {"type": "position", "time": 3409, "x": null, "y": 0.6433333333333333}, {"type": "position", "time": 3458, "x": null, "y": 0.6416666666666667}, {"type": "position", "time": 3508, "x": null, "y": 0.635}, {"type": "position", "time": 3560, "x": null, "y": 0.6133333333333333}, {"type": "position", "time": 3609, "x": null, "y": 0.585}, {"type": "position", "time": 3658, "x": null, "y": 0.56}, {"type": "position", "time": 3708, "x": null, "y": 0.56}, {"type": "position", "time": 3761, "x": null, "y": 0.56}, {"type": "position", "time": 3813, "x": null, "y": 0.56}, {"type": "position", "time": 3858, "x": null, "y": 0.5633333333333334}, {"type": "position", "time": 3909, "x": null, "y": 0.565}, {"type": "position", "time": 3958, "x": null, "y": 0.5516666666666666}, {"type": "position", "time": 4008, "x": null, "y": 0.5433333333333333}, {"type": "position", "time": 4058, "x": null, "y": 0.55}, {"type": "position", "time": 4108, "x": null, "y": 0.5566666666666666}, {"type": "position", "time": 4158, "x": null, "y": 0.5533333333333333}, {"type": "position", "time": 4209, "x": null, "y": 0.545}, {"type": "position", "time": 4259, "x": null, "y": 0.5416666666666666}, {"type": "position", "time": 4308, "x": null, "y": 0.5416666666666666}, {"type": "position", "time": 4359, "x": null, "y": 0.5466666666666666}, {"type": "position", "time": 4408, "x": null, "y": 0.555}, {"type": "position", "time": 4458, "x": null, "y": 0.5566666666666666}, {"type": "position", "time": 4511, "x": null, "y": 0.5566666666666666}, {"type": "position", "time": 4558, "x": null, "y": 0.545}, {"type": "position", "time": 4608, "x": null, "y": 0.5516666666666666}, {"type": "position", "time": 4658, "x": null, "y": 0.5966666666666667}, {"type": "position", "time": 4708, "x": null, "y": 0.6366666666666667}, {"type": "position", "time": 4760, "x": null, "y": 0.6366666666666667}, {"type": "position", "time": 4811, "x": null, "y": 0.6366666666666667}, {"type": "position", "time": 4858, "x": null, "y": 0.62}, {"type": "position", "time": 4908, "x": null, "y": 0.6}, {"type": "position", "time": 4958, "x": null, "y": 0.5933333333333334}, {"type": "position", "time": 5008, "x": null, "y": 0.5883333333333334}, {"type": "position", "time": 5058, "x": null, "y": 0.575}, {"type": "position", "time": 5110, "x": null, "y": 0.5716666666666667}, {"type": "position", "time": 5161, "x": null, "y": 0.57}, {"type": "slider", "time": 5178, "value": 0.64}, {"type": "position", "time": 5207, "x": null, "y": 0.57}, {"type": "position", "time": 5259, "x": null, "y": 0.57}, {"type": "click", "time": 5277, "x": null, "y": 0.57}, {"type": "position", "time": 5307, "x": null, "y": 0.57}, {"type": "position", "time": 5359, "x": null, "y": 0.57}, {"type": "position", "time": 5412, "x": null, "y": 0.57}, {"type": "position", "time": 5458, "x": null, "y": 0.57}, {"type": "position", "time": 5509, "x": null, "y": 0.57}, {"type": "position", "time": 5558, "x": null, "y": 0.57}, {"type": "position", "time": 5611, "x": null, "y": 0.57}, {"type": "position", "time": 5658, "x": null, "y": 0.5716666666666667}, {"type": "position", "time": 5707, "x": null, "y": 0.5766666666666667}, {"type": "position", "time": 5759, "x": null, "y": 0.58}, {"type": "position", "time": 5808, "x": null, "y": 0.58}, {"type": "position", "time": 5858, "x": null, "y": 0.5816666666666667}, {"type": "position", "time": 5908, "x": null, "y": 0.5833333333333334}, {"type": "position", "time": 5958, "x": null, "y": 0.5833333333333334}, {"type": "position", "time": 6009, "x": null, "y": 0.58}, {"type": "position", "time": 6058, "x": null, "y": 0.5633333333333334}, {"type": "position", "time": 6109, "x": null, "y": 0.5633333333333334}, {"type": "position", "time": 6158, "x": null, "y": 0.57}, {"type": "position", "time": 6208, "x": null, "y": 0.59}, {"type": "position", "time": 6260, "x": null, "y": 0.63}, {"type": "position", "time": 6309, "x": null, "y": 0.68}, {"type": "position", "time": 6359, "x": null, "y": 0.695}, {"type": "position", "time": 6411, "x": null, "y": 0.6966666666666667}, {"type": "position", "time": 6463, "x": null, "y": 0.6966666666666667}, {"type": "position", "time": 6508, "x": null, "y": 0.6833333333333333}, {"type": "position", "time": 6558, "x": null, "y": 0.6566666666666666}, {"type": "position", "time": 6608, "x": null, "y": 0.64}, {"type": "position", "time": 6661, "x": null, "y": 0.6366666666666667}, {"type": "position", "time": 6709, "x": null, "y": 0.6366666666666667}, {"type": "position", "time": 6761, "x": null, "y": 0.6366666666666667}, {"type": "position", "time": 6807, "x": null, "y": 0.6416666666666667}, {"type": "position", "time": 6858, "x": null, "y": 0.6483333333333333}, {"type": "position", "time": 6909, "x": null, "y": 0.6566666666666666}, {"type": "position", "time": 6959, "x": null, "y": 0.665}, {"type": "position", "time": 7009, "x": null, "y": 0.67}, {"type": "position", "time": 7059, "x": null, "y": 0.66}, {"type": "position", "time": 7109, "x": null, "y": 0.62}, {"type": "position", "time": 7159, "x": null, "y": 0.5833333333333334}, {"type": "position", "time": 7208, "x": null, "y": 0.575}, {"type": "position", "time": 7259, "x": null, "y": 0.575}, {"type": "position", "time": 7309, "x": null, "y": 0.575}, {"type": "position", "time": 7358, "x": null, "y": 0.5716666666666667}, {"type": "position", "time": 7408, "x": null, "y": 0.5483333333333333}, {"type": "position", "time": 7458, "x": null, "y": 0.5366666666666666}, {"type": "position", "time": 7510, "x": null, "y": 0.5366666666666666}, {"type": "position", "time": 7558, "x": null, "y": 0.5383333333333333}, {"type": "position", "time": 7608, "x": null, "y": 0.55}, {"type": "position", "time": 7658, "x": null, "y": 0.5633333333333334}, {"type": "position", "time": 7710, "x": null, "y": 0.5716666666666667}, {"type": "position", "time": 7758, "x": null, "y": 0.5716666666666667}, {"type": "position", "time": 7808, "x": null, "y": 0.5716666666666667}, {"type": "position", "time": 7861, "x": null, "y": 0.5716666666666667}, {"type": "click", "time": 7896, "x": null, "y": 0.5716666666666667}, {"type": "position", "time": 7908, "x": null, "y": 0.5716666666666667}, {"type": "position", "time": 7960, "x": null, "y": 0.5716666666666667}, {"type": "position", "time": 8009, "x": null, "y": 0.5716666666666667}, {"type": "position", "time": 8058, "x": null, "y": 0.5716666666666667}, {"type": "position", "time": 8108, "x": null, "y": 0.56}, {"type": "position", "time": 8159, "x": null, "y": 0.5566666666666666}, {"type": "slider", "time": 8161, "value": 0.19}, {"type": "position", "time": 8211, "x": null, "y": 0.5566666666666666}, {"type": "position", "time": 8261, "x": null, "y": 0.5566666666666666}, {"type": "click", "time": 8286, "x": null, "y": 0.5566666666666666}, {"type": "position", "time": 8309, "x": null, "y": 0.5583333333333333}, {"type": "position", "time": 8358, "x": null, "y": 0.56}, {"type": "position", "time": 8408, "x": null, "y": 0.5616666666666666}, {"type": "position", "time": 8459, "x": null, "y": 0.5966666666666667}, {"type": "position", "time": 8509, "x": null, "y": 0.655}, {"type": "position", "time": 8559, "x": null, "y": 0.6766666666666666}, {"type": "position", "time": 8608, "x": null, "y": 0.675}, {"type": "position", "time": 8658, "x": null, "y": 0.6716666666666666}, {"type": "position", "time": 8707, "x": null, "y": 0.665}, {"type": "position", "time": 8757, "x": null, "y": 0.6583333333333333}, {"type": "position", "time": 8807, "x": null, "y": 0.6583333333333333}, {"type": "position", "time": 8861, "x": null, "y": 0.6583333333333333}, {"type": "click", "time": 8879, "x": null, "y": 0.6583333333333333}, {"type": "position", "time": 8907, "x": null, "y": 0.6583333333333333}, {"type": "position", "time": 8959, "x": null, "y": 0.6616666666666666}, {"type": "position", "time": 9009, "x": null, "y": 0.655}, {"type": "position", "time": 9059, "x": null, "y": 0.6383333333333333}, {"type": "position", "time": 9109, "x": null, "y": 0.6066666666666667}, {"type": "position", "time": 9158, "x": null, "y": 0.6033333333333334}, {"type": "position", "time": 9208, "x": null, "y": 0.6016666666666667}, {"type": "position", "time": 9258, "x": null, "y": 0.5933333333333334}, {"type": "position", "time": 9307, "x": null, "y": 0.5633333333333334}, {"type": "position", "time": 9360, "x": null, "y": 0.5283333333333333}, {"type": "position", "time": 9410, "x": null, "y": 0.5183333333333333}, {"type": "position", "time": 9459, "x": null, "y": 0.5183333333333333}, {"type": "position", "time": 9509, "x": null, "y": 0.5183333333333333}, {"type": "position", "time": 9560, "x": null, "y": 0.525}, {"type": "position", "time": 9609, "x": null, "y": 0.54}, {"type": "position", "time": 9658, "x": null, "y": 0.5416666666666666}, {"type": "position", "time": 9708, "x": null, "y": 0.5416666666666666}, {"type": "position", "time": 9759, "x": null, "y": 0.5416666666666666}, {"type": "position", "time": 9808, "x": null, "y": 0.54}, {"type": "position", "time": 9858, "x": null, "y": 0.5383333333333333}, {"type": "position", "time": 9907, "x": null, "y": 0.5416666666666666}, {"type": "position", "time": 9958, "x": null, "y": 0.545}, {"type": "position", "time": 10008, "x": null, "y": 0.545}, {"type": "position", "time": 10060, "x": null, "y": 0.545}, {"type": "click", "time": 10098, "x": null, "y": 0.545}, {"type": "position", "time": 10109, "x": null, "y": 0.545}, {"type": "position", "time": 10161, "x": null, "y": 0.545}, {"type": "position", "time": 10208, "x": null, "y": 0.545}, {"type": "position", "time": 10262, "x": null, "y": 0.545}, {"type": "position", "time": 10307, "x": null, "y": 0.545}, {"type": "position", "time": 10363, "x": null, "y": 0.545}, {"type": "position", "time": 10410, "x": null, "y": 0.545}, {"type": "position", "time": 10458, "x": null, "y": 0.5383333333333333}, {"type": "position", "time": 10508, "x": null, "y": 0.48833333333333334}, {"type": "position", "time": 10560, "x": null, "y": 0.48833333333333334}, {"type": "position", "time": 10610, "x": null, "y": 0.48833333333333334}, {"type": "position", "time": 10662, "x": null, "y": 0.48833333333333334}, {"type": "position", "time": 10710, "x": null, "y": 0.48833333333333334}, {"type": "position", "time": 10762, "x": null, "y": 0.48833333333333334}, {"type": "position", "time": 10812, "x": null, "y": 0.48833333333333334}, {"type": "position", "time": 10861, "x": null, "y": 0.48833333333333334}, {"type": "position", "time": 10909, "x": null, "y": 0.48833333333333334}, {"type": "position", "time": 10962, "x": null, "y": 0.48833333333333334}, {"type": "position", "time": 11012, "x": null, "y": 0.48833333333333334}, {"type": "position", "time": 11060, "x": null, "y": 0.48833333333333334}, {"type": "position", "time": 11110, "x": null, "y": 0.48833333333333334}, {"type": "position", "time": 11162, "x": null, "y": 0.48833333333333334}, {"type": "position", "time": 11209, "x": null, "y": 0.48833333333333334}, {"type": "position", "time": 11261, "x": null, "y": 0.48833333333333334}, {"type": "position", "time": 11308, "x": null, "y": 0.48833333333333334}, {"type": "position", "time": 11361, "x": null, "y": 0.48833333333333334}, {"type": "position", "time": 11410, "x": null, "y": 0.48833333333333334}, {"type": "position", "time": 11460, "x": null, "y": 0.48833333333333334}, {"type": "position", "time": 11511, "x": null, "y": 0.48833333333333334}, {"type": "position", "time": 11559, "x": null, "y": 0.48833333333333334}, {"type": "position", "time": 11612, "x": null, "y": 0.48833333333333334}, {"type": "position", "time": 11662, "x": null, "y": 0.48833333333333334}, {"type": "position", "time": 11709, "x": null, "y": 0.48833333333333334}, {"type": "position", "time": 11759, "x": null, "y": 0.48833333333333334}, {"type": "position", "time": 11812, "x": null, "y": 0.48833333333333334}, {"type": "position", "time": 11860, "x": null, "y": 0.48833333333333334}, {"type": "position", "time": 11912, "x": null, "y": 0.48833333333333334}, {"type": "position", "time": 11962, "x": null, "y": 0.48833333333333334}, {"type": "position", "time": 12012, "x": null, "y": 0.48833333333333334}, {"type": "position", "time": 12059, "x": null, "y": 0.48833333333333334}, {"type": "position", "time": 12109, "x": null, "y": 0.48833333333333334}, {"type": "position", "time": 12159, "x": null, "y": 0.48833333333333334}, {"type": "position", "time": 12209, "x": null, "y": 0.48833333333333334}, {"type": "position", "time": 12259, "x": null, "y": 0.48833333333333334}, {"type": "position", "time": 12308, "x": null, "y": 0.48833333333333334}, {"type": "position", "time": 12361, "x": null, "y": 0.48833333333333334}, {"type": "position", "time": 12408, "x": null, "y": 0.48833333333333334}, {"type": "position", "time": 12462, "x": null, "y": 0.48833333333333334}, {"type": "position", "time": 12512, "x": null, "y": 0.48833333333333334}, {"type": "position", "time": 12561, "x": null, "y": 0.48833333333333334}, {"type": "position", "time": 12612, "x": null, "y": 0.48833333333333334}, {"type": "position", "time": 12657, "x": null, "y": 0.48833333333333334}, {"type": "position", "time": 12708, "x": null, "y": 0.48833333333333334}, {"type": "position", "time": 12762, "x": null, "y": 0.48833333333333334}, {"type": "position", "time": 12808, "x": null, "y": 0.48833333333333334}, {"type": "position", "time": 12862, "x": null, "y": 0.48833333333333334}, {"type": "position", "time": 12911, "x": null, "y": 0.48833333333333334}, {"type": "position", "time": 12961, "x": null, "y": 0.48833333333333334}, {"type": "position", "time": 13012, "x": null, "y": 0.48833333333333334}, {"type": "position", "time": 13058, "x": null, "y": 0.48833333333333334}, {"type": "position", "time": 13109, "x": null, "y": 0.48833333333333334}, {"type": "position", "time": 13159, "x": null, "y": 0.48833333333333334}, {"type": "position", "time": 13210, "x": null, "y": 0.48833333333333334}, {"type": "position", "time": 13261, "x": null, "y": 0.48833333333333334}, {"type": "position", "time": 13309, "x": null, "y": 0.48833333333333334}, {"type": "position", "time": 13362, "x": null, "y": 0.48833333333333334}, {"type": "position", "time": 13412, "x": null, "y": 0.48833333333333334}, {"type": "position", "time": 13462, "x": null, "y": 0.48833333333333334}, {"type": "position", "time": 13512, "x": null, "y": 0.48833333333333334}, {"type": "position", "time": 13560, "x": null, "y": 0.48833333333333334}, {"type": "position", "time": 13609, "x": null, "y": 0.48833333333333334}, {"type": "position", "time": 13660, "x": null, "y": 0.48833333333333334}, {"type": "position", "time": 13710, "x": null, "y": 0.48833333333333334}, {"type": "position", "time": 13762, "x": null, "y": 0.48833333333333334}, {"type": "position", "time": 13807, "x": null, "y": 0.48833333333333334}, {"type": "position", "time": 13860, "x": null, "y": 0.48833333333333334}, {"type": "position", "time": 13909, "x": null, "y": 0.48833333333333334}, {"type": "position", "time": 13962, "x": null, "y": 0.48833333333333334}, {"type": "position", "time": 14009, "x": null, "y": 0.48833333333333334}, {"type": "position", "time": 14057, "x": null, "y": 0.48833333333333334}, {"type": "position", "time": 14109, "x": null, "y": 0.48833333333333334}, {"type": "position", "time": 14158, "x": null, "y": 0.48833333333333334}, {"type": "keyup", "time": 14192, "key": "I", "keyCode": 73}, {"type": "position", "time": 14207, "x": null, "y": 0.48833333333333334}, {"type": "position", "time": 14260, "x": null, "y": 0.48833333333333334}, {"type": "position", "time": 14307, "x": null, "y": 0.48833333333333334}, {"type": "keyup", "time": 14317, "key": "T", "keyCode": 84}, {"type": "position", "time": 14360, "x": null, "y": 0.48833333333333334}, {"type": "keyup", "time": 14367, "key": " ", "keyCode": 32}, {"type": "position", "time": 14408, "x": null, "y": 0.48833333333333334}, {"type": "position", "time": 14460, "x": null, "y": 0.48833333333333334}, {"type": "keyup", "time": 14480, "key": "W", "keyCode": 87}, {"type": "position", "time": 14508, "x": null, "y": 0.48833333333333334}, {"type": "position", "time": 14559, "x": null, "y": 0.48833333333333334}, {"type": "keyup", "time": 14605, "key": "A", "keyCode": 65}, {"type": "position", "time": 14608, "x": null, "y": 0.48833333333333334}, {"type": "keyup", "time": 14655, "key": "S", "keyCode": 83}, {"type": "position", "time": 14658, "x": null, "y": 0.48833333333333334}, {"type": "keyup", "time": 14704, "key": " ", "keyCode": 32}, {"type": "position", "time": 14708, "x": null, "y": 0.48833333333333334}, {"type": "position", "time": 14757, "x": null, "y": 0.48833333333333334}, {"type": "position", "time": 14812, "x": null, "y": 0.48833333333333334}, {"type": "keyup", "time": 14855, "key": "C", "keyCode": 67}, {"type": "position", "time": 14858, "x": null, "y": 0.48833333333333334}, {"type": "keyup", "time": 14880, "key": "L", "keyCode": 76}, {"type": "position", "time": 14912, "x": null, "y": 0.48833333333333334}, {"type": "position", "time": 14959, "x": null, "y": 0.48833333333333334}, {"type": "position", "time": 15007, "x": null, "y": 0.48833333333333334}, {"type": "keyup", "time": 15042, "key": "O", "keyCode": 79}, {"type": "position", "time": 15058, "x": null, "y": 0.48833333333333334}, {"type": "position", "time": 15107, "x": null, "y": 0.48833333333333334}, {"type": "keyup", "time": 15117, "key": "U", "keyCode": 85}, {"type": "position", "time": 15161, "x": null, "y": 0.48833333333333334}, {"type": "keyup", "time": 15205, "key": "D", "keyCode": 68}, {"type": "position", "time": 15208, "x": null, "y": 0.48833333333333334}, {"type": "position", "time": 15257, "x": null, "y": 0.48833333333333334}, {"type": "position", "time": 15312, "x": null, "y": 0.48833333333333334}, {"type": "keyup", "time": 15330, "key": "Y", "keyCode": 89}, {"type": "position", "time": 15361, "x": null, "y": 0.48833333333333334}, {"type": "position", "time": 15412, "x": null, "y": 0.48833333333333334}, {"type": "position", "time": 15458, "x": null, "y": 0.48833333333333334}, {"type": "position", "time": 15516, "x": null, "y": 0.48833333333333334}, {"type": "keyup", "time": 15557, "key": "\t", "keyCode": 9}, {"type": "position", "time": 15557, "x": null, "y": 0.48833333333333334}, {"type": "position", "time": 15607, "x": null, "y": 0.48833333333333334}, {"type": "position", "time": 15658, "x": null, "y": 0.48833333333333334}, {"type": "keyup", "time": 15705, "key": " ", "keyCode": 32}, {"type": "click", "time": 15711, "x": null, "y": 0.48833333333333334}, {"type": "position", "time": 15712, "x": null, "y": 0.48833333333333334}, {"type": "position", "time": 15761, "x": null, "y": 0.48833333333333334}, {"type": "position", "time": 15811, "x": null, "y": 0.48833333333333334}, {"type": "position", "time": 15858, "x": null, "y": 0.48833333333333334}, {"type": "position", "time": 15911, "x": null, "y": 0.48833333333333334}, {"type": "position", "time": 15962, "x": null, "y": 0.48833333333333334}, {"type": "position", "time": 16010, "x": null, "y": 0.48833333333333334}, {"type": "position", "time": 16061, "x": null, "y": 0.48833333333333334}, {"type": "position", "time": 16109, "x": null, "y": 0.48833333333333334}, {"type": "position", "time": 16158, "x": null, "y": 0.48833333333333334}, {"type": "position", "time": 16212, "x": null, "y": 0.48833333333333334}, {"type": "position", "time": 16259, "x": null, "y": 0.48833333333333334}, {"type": "position", "time": 16308, "x": null, "y": 0.48833333333333334}, {"type": "position", "time": 16358, "x": null, "y": 0.48833333333333334}, {"type": "position", "time": 16409, "x": null, "y": 0.4866666666666667}, {"type": "position", "time": 16460, "x": null, "y": 0.48333333333333334}, {"type": "position", "time": 16511, "x": null, "y": 0.48333333333333334}, {"type": "position", "time": 16558, "x": null, "y": 0.48333333333333334}, {"type": "position", "time": 16609, "x": null, "y": 0.48333333333333334}, {"type": "position", "time": 16662, "x": null, "y": 0.48333333333333334}, {"type": "position", "time": 16708, "x": null, "y": 0.48333333333333334}, {"type": "position", "time": 16762, "x": null, "y": 0.48333333333333334}, {"type": "position", "time": 16809, "x": null, "y": 0.485}, {"type": "position", "time": 16858, "x": null, "y": 0.48833333333333334}, {"type": "position", "time": 16908, "x": null, "y": 0.48833333333333334}, {"type": "position", "time": 16958, "x": null, "y": 0.47333333333333333}, {"type": "position", "time": 17008, "x": null, "y": 0.45666666666666667}, {"type": "position", "time": 17058, "x": null, "y": 0.4533333333333333}, {"type": "position", "time": 17111, "x": null, "y": 0.4533333333333333}, {"type": "position", "time": 17161, "x": null, "y": 0.4533333333333333}, {"type": "position", "time": 17212, "x": null, "y": 0.4533333333333333}, {"type": "position", "time": 17260, "x": null, "y": 0.4533333333333333}, {"type": "position", "time": 17312, "x": null, "y": 0.4533333333333333}, {"type": "position", "time": 17362, "x": null, "y": 0.4533333333333333}, {"type": "position", "time": 17411, "x": null, "y": 0.4533333333333333}, {"type": "position", "time": 17460, "x": null, "y": 0.4533333333333333}, {"type": "position", "time": 17510, "x": null, "y": 0.45166666666666666}, {"type": "position", "time": 17557, "x": null, "y": 0.44333333333333336}, {"type": "position", "time": 17608, "x": null, "y": 0.42}, {"type": "position", "time": 17657, "x": null, "y": 0.4033333333333333}, {"type": "position", "time": 17709, "x": null, "y": 0.38}, {"type": "position", "time": 17760, "x": null, "y": 0.37833333333333335}, {"type": "position", "time": 17808, "x": null, "y": 0.38}, {"type": "position", "time": 17858, "x": null, "y": 0.41}, {"type": "position", "time": 17907, "x": null, "y": 0.58}, {"type": "position", "time": 17958, "x": null, "y": 0.655}, {"type": "position", "time": 18008, "x": null, "y": 0.6566666666666666}, {"type": "position", "time": 18060, "x": null, "y": 0.655}, {"type": "position", "time": 18108, "x": null, "y": 0.655}, {"type": "position", "time": 18159, "x": null, "y": 0.6566666666666666}, {"type": "position", "time": 18208, "x": null, "y": 0.6666666666666666}, {"type": "position", "time": 18258, "x": null, "y": 0.6733333333333333}, {"type": "position", "time": 18310, "x": null, "y": 0.6733333333333333}, {"type": "position", "time": 18358, "x": null, "y": 0.6716666666666666}, {"type": "position", "time": 18407, "x": null, "y": 0.6733333333333333}, {"type": "position", "time": 18457, "x": null, "y": 0.6833333333333333}, {"type": "position", "time": 18509, "x": null, "y": 0.685}, {"type": "position", "time": 18560, "x": null, "y": 0.6833333333333333}, {"type": "position", "time": 18612, "x": null, "y": 0.6833333333333333}, {"type": "position", "time": 18658, "x": null, "y": 0.6833333333333333}, {"type": "position", "time": 18710, "x": null, "y": 0.6833333333333333}, {"type": "position", "time": 18762, "x": null, "y": 0.6833333333333333}, {"type": "position", "time": 18811, "x": null, "y": 0.6833333333333333}, {"type": "slider", "time": 18835, "value": 0.72}, {"type": "position", "time": 18857, "x": null, "y": 0.6833333333333333}, {"type": "position", "time": 18912, "x": null, "y": 0.6833333333333333}, {"type": "position", "time": 18960, "x": null, "y": 0.6833333333333333}, {"type": "position", "time": 19008, "x": null, "y": 0.6866666666666666}, {"type": "position", "time": 19057, "x": null, "y": 0.6883333333333334}, {"type": "position", "time": 19108, "x": null, "y": 0.6883333333333334}, {"type": "click", "time": 19130, "x": null, "y": 0.6883333333333334}, {"type": "position", "time": 19161, "x": null, "y": 0.6883333333333334}, {"type": "position", "time": 19212, "x": null, "y": 0.6883333333333334}, {"type": "position", "time": 19260, "x": null, "y": 0.6883333333333334}, {"type": "position", "time": 19310, "x": null, "y": 0.6883333333333334}, {"type": "position", "time": 19361, "x": null, "y": 0.6883333333333334}, {"type": "position", "time": 19412, "x": null, "y": 0.6883333333333334}, {"type": "position", "time": 19458, "x": null, "y": 0.6883333333333334}, {"type": "position", "time": 19508, "x": null, "y": 0.6883333333333334}, {"type": "slider", "time": 19529, "value": 0.7}, {"type": "slider", "time": 19545, "value": 0.69}, {"type": "position", "time": 19558, "x": null, "y": 0.685}, {"type": "slider", "time": 19563, "value": 0.66}, {"type": "slider", "time": 19581, "value": 0.63}, {"type": "slider", "time": 19598, "value": 0.58}, {"type": "position", "time": 19608, "x": null, "y": 0.67}, {"type": "slider", "time": 19615, "value": 0.55}, {"type": "slider", "time": 19633, "value": 0.53}, {"type": "slider", "time": 19650, "value": 0.51}, {"type": "position", "time": 19658, "x": null, "y": 0.6683333333333333}, {"type": "slider", "time": 19667, "value": 0.49}, {"type": "slider", "time": 19685, "value": 0.48}, {"type": "slider", "time": 19702, "value": 0.46}, {"type": "position", "time": 19708, "x": null, "y": 0.6683333333333333}, {"type": "slider", "time": 19719, "value": 0.45}, {"type": "position", "time": 19757, "x": null, "y": 0.6683333333333333}, {"type": "slider", "time": 19771, "value": 0.44}, {"type": "slider", "time": 19789, "value": 0.43}, {"type": "slider", "time": 19805, "value": 0.42}, {"type": "position", "time": 19808, "x": null, "y": 0.6683333333333333}, {"type": "slider", "time": 19823, "value": 0.41}, {"type": "slider", "time": 19840, "value": 0.4}, {"type": "slider", "time": 19857, "value": 0.39}, {"type": "position", "time": 19858, "x": null, "y": 0.6683333333333333}, {"type": "slider", "time": 19875, "value": 0.38}, {"type": "slider", "time": 19892, "value": 0.36}, {"type": "slider", "time": 19909, "value": 0.35}, {"type": "position", "time": 19910, "x": null, "y": 0.67}, {"type": "slider", "time": 19927, "value": 0.34}, {"type": "slider", "time": 19943, "value": 0.32}, {"type": "position", "time": 19958, "x": null, "y": 0.6716666666666666}, {"type": "slider", "time": 19961, "value": 0.3}, {"type": "slider", "time": 19978, "value": 0.28}, {"type": "slider", "time": 19995, "value": 0.27}, {"type": "position", "time": 20009, "x": null, "y": 0.6816666666666666}, {"type": "slider", "time": 20012, "value": 0.25}, {"type": "slider", "time": 20029, "value": 0.24}, {"type": "slider", "time": 20047, "value": 0.23}, {"type": "position", "time": 20059, "x": null, "y": 0.69}, {"type": "slider", "time": 20064, "value": 0.21}, {"type": "position", "time": 20108, "x": null, "y": 0.695}, {"type": "position", "time": 20158, "x": null, "y": 0.6966666666666667}, {"type": "position", "time": 20209, "x": null, "y": 0.6966666666666667}, {"type": "position", "time": 20259, "x": null, "y": 0.6966666666666667}, {"type": "position", "time": 20310, "x": null, "y": 0.6966666666666667}, {"type": "position", "time": 20361, "x": null, "y": 0.6966666666666667}, {"type": "position", "time": 20411, "x": null, "y": 0.6966666666666667}, {"type": "position", "time": 20458, "x": null, "y": 0.7}, {"type": "position", "time": 20508, "x": null, "y": 0.7383333333333333}, {"type": "position", "time": 20558, "x": null, "y": 0.775}, {"type": "position", "time": 20610, "x": null, "y": 0.775}, {"type": "position", "time": 20657, "x": null, "y": 0.775}, {"type": "position", "time": 20708, "x": null, "y": 0.7783333333333333}, {"type": "position", "time": 20758, "x": null, "y": 0.78}, {"type": "position", "time": 20807, "x": null, "y": 0.78}, {"type": "position", "time": 20862, "x": null, "y": 0.78}, {"type": "click", "time": 20898, "x": null, "y": 0.78}, {"type": "position", "time": 20908, "x": null, "y": 0.78}, {"type": "position", "time": 20958, "x": null, "y": 0.78}, {"type": "position", "time": 21010, "x": null, "y": 0.78}, {"type": "position", "time": 21058, "x": null, "y": 0.7783333333333333}, {"type": "position", "time": 21108, "x": null, "y": 0.7783333333333333}, {"type": "position", "time": 21158, "x": null, "y": 0.775}, {"type": "position", "time": 21209, "x": null, "y": 0.77}, {"type": "position", "time": 21258, "x": null, "y": 0.7566666666666667}, {"type": "position", "time": 21308, "x": null, "y": 0.69}, {"type": "position", "time": 21357, "x": null, "y": 0.6583333333333333}, {"type": "position", "time": 21407, "x": null, "y": 0.635}, {"type": "position", "time": 21457, "x": null, "y": 0.6133333333333333}, {"type": "position", "time": 21508, "x": null, "y": 0.5866666666666667}, {"type": "position", "time": 21557, "x": null, "y": 0.5733333333333334}, {"type": "position", "time": 21609, "x": null, "y": 0.5733333333333334}, {"type": "position", "time": 21659, "x": null, "y": 0.5733333333333334}, {"type": "position", "time": 21707, "x": null, "y": 0.5733333333333334}, {"type": "position", "time": 21762, "x": null, "y": 0.5733333333333334}, {"type": "position", "time": 21808, "x": null, "y": 0.575}, {"type": "position", "time": 21857, "x": null, "y": 0.5766666666666667}, {"type": "position", "time": 21909, "x": null, "y": 0.5816666666666667}, {"type": "position", "time": 21958, "x": null, "y": 0.5816666666666667}, {"type": "click", "time": 21959, "x": null, "y": 0.5816666666666667}, {"type": "position", "time": 22008, "x": null, "y": 0.585}, {"type": "position", "time": 22057, "x": null, "y": 0.59}, {"type": "slider", "time": 22071, "value": 0.44}, {"type": "position", "time": 22108, "x": null, "y": 0.5933333333333334}, {"type": "position", "time": 22158, "x": null, "y": 0.595}, {"type": "slider", "time": 22180, "value": 0.43}, {"type": "position", "time": 22208, "x": null, "y": 0.5966666666666667}, {"type": "slider", "time": 22238, "value": 0.42}, {"type": "position", "time": 22258, "x": null, "y": 0.5983333333333334}, {"type": "slider", "time": 22275, "value": 0.41}, {"type": "slider", "time": 22309, "value": 0.4}, {"type": "position", "time": 22309, "x": null, "y": 0.5983333333333334}, {"type": "slider", "time": 22326, "value": 0.39}, {"type": "slider", "time": 22342, "value": 0.38}, {"type": "position", "time": 22357, "x": null, "y": 0.5983333333333334}, {"type": "slider", "time": 22377, "value": 0.37}, {"type": "position", "time": 22408, "x": null, "y": 0.5966666666666667}, {"type": "slider", "time": 22412, "value": 0.36}, {"type": "slider", "time": 22429, "value": 0.35}, {"type": "slider", "time": 22446, "value": 0.33}, {"type": "position", "time": 22457, "x": null, "y": 0.5933333333333334}, {"type": "slider", "time": 22463, "value": 0.32}, {"type": "slider", "time": 22481, "value": 0.31}, {"type": "slider", "time": 22498, "value": 0.3}, {"type": "position", "time": 22507, "x": null, "y": 0.59}, {"type": "slider", "time": 22515, "value": 0.29}, {"type": "slider", "time": 22532, "value": 0.28}, {"type": "position", "time": 22558, "x": null, "y": 0.5883333333333334}, {"type": "click", "time": 22560, "x": null, "y": 0.5883333333333334}, {"type": "position", "time": 22607, "x": null, "y": 0.63}, {"type": "position", "time": 22657, "x": null, "y": 0.7066666666666667}, {"type": "position", "time": 22707, "x": null, "y": 0.7116666666666667}, {"type": "position", "time": 22757, "x": null, "y": 0.705}, {"type": "position", "time": 22809, "x": null, "y": 0.705}, {"type": "position", "time": 22857, "x": null, "y": 0.7033333333333334}, {"type": "click", "time": 22880, "x": null, "y": 0.7033333333333334}, {"type": "position", "time": 22908, "x": null, "y": 0.7033333333333334}, {"type": "position", "time": 22962, "x": null, "y": 0.7033333333333334}, {"type": "position", "time": 23007, "x": null, "y": 0.7016666666666667}, {"type": "position", "time": 23057, "x": null, "y": 0.7}, {"type": "position", "time": 23107, "x": null, "y": 0.7083333333333334}, {"type": "position", "time": 23157, "x": null, "y": 0.7266666666666667}, {"type": "position", "time": 23207, "x": null, "y": 0.7316666666666667}, {"type": "position", "time": 23258, "x": null, "y": 0.7333333333333333}, {"type": "position", "time": 23308, "x": null, "y": 0.7333333333333333}, {"type": "position", "time": 23358, "x": null, "y": 0.7333333333333333}, {"type": "position", "time": 23411, "x": null, "y": 0.7333333333333333}, {"type": "position", "time": 23460, "x": null, "y": 0.7333333333333333}, {"type": "position", "time": 23508, "x": null, "y": 0.7333333333333333}, {"type": "position", "time": 23559, "x": null, "y": 0.7333333333333333}, {"type": "position", "time": 23612, "x": null, "y": 0.7333333333333333}, {"type": "position", "time": 23658, "x": null, "y": 0.7333333333333333}, {"type": "position", "time": 23707, "x": null, "y": 0.7566666666666667}, {"type": "position", "time": 23757, "x": null, "y": 0.7866666666666666}, {"type": "position", "time": 23807, "x": null, "y": 0.7866666666666666}, {"type": "position", "time": 23862, "x": null, "y": 0.7866666666666666}, {"type": "position", "time": 23910, "x": null, "y": 0.7866666666666666}, {"type": "click", "time": 23911, "x": null, "y": 0.7866666666666666}, {"type": "position", "time": 23957, "x": null, "y": 0.7883333333333333}, {"type": "position", "time": 24007, "x": null, "y": 0.7883333333333333}, {"type": "position", "time": 24058, "x": null, "y": 0.7883333333333333}, {"type": "position", "time": 24107, "x": null, "y": 0.7883333333333333}, {"type": "position", "time": 24157, "x": null, "y": 0.7816666666666666}, {"type": "position", "time": 24207, "x": null, "y": 0.7783333333333333}, {"type": "position", "time": 24257, "x": null, "y": 0.785}, {"type": "position", "time": 24307, "x": null, "y": 0.8016666666666666}, {"type": "position", "time": 24357, "x": null, "y": 0.8033333333333333}, {"type": "position", "time": 24409, "x": null, "y": 0.8}, {"type": "position", "time": 24457, "x": null, "y": 0.79}, {"type": "position", "time": 24507, "x": null, "y": 0.7783333333333333}, {"type": "position", "time": 24557, "x": null, "y": 0.7716666666666666}, {"type": "position", "time": 24607, "x": null, "y": 0.7666666666666667}, {"type": "position", "time": 24658, "x": null, "y": 0.765}, {"type": "position", "time": 24711, "x": null, "y": 0.765}, {"type": "position", "time": 24758, "x": null, "y": 0.765}, {"type": "position", "time": 24807, "x": null, "y": 0.7683333333333333}, {"type": "position", "time": 24857, "x": null, "y": 0.7766666666666666}, {"type": "position", "time": 24907, "x": null, "y": 0.7933333333333333}, {"type": "position", "time": 24957, "x": null, "y": 0.8016666666666666}, {"type": "position", "time": 25008, "x": null, "y": 0.805}, {"type": "position", "time": 25059, "x": null, "y": 0.8066666666666666}, {"type": "position", "time": 25107, "x": null, "y": 0.8}, {"type": "position", "time": 25157, "x": null, "y": 0.7733333333333333}, {"type": "position", "time": 25208, "x": null, "y": 0.75}, {"type": "position", "time": 25257, "x": null, "y": 0.7}, {"type": "position", "time": 25307, "x": null, "y": 0.6866666666666666}, {"type": "position", "time": 25361, "x": null, "y": 0.6866666666666666}, {"type": "position", "time": 25409, "x": null, "y": 0.69}, {"type": "position", "time": 25458, "x": null, "y": 0.6983333333333334}, {"type": "position", "time": 25507, "x": null, "y": 0.7}, {"type": "position", "time": 25558, "x": null, "y": 0.6983333333333334}, {"type": "position", "time": 25608, "x": null, "y": 0.665}, {"type": "position", "time": 25657, "x": null, "y": 0.5266666666666666}, {"type": "position", "time": 25707, "x": null, "y": 0.4633333333333333}, {"type": "position", "time": 25757, "x": null, "y": 0.4583333333333333}, {"type": "position", "time": 25808, "x": null, "y": 0.46166666666666667}, {"type": "position", "time": 25859, "x": null, "y": 0.465}, {"type": "position", "time": 25908, "x": null, "y": 0.465}, {"type": "position", "time": 25958, "x": null, "y": 0.47}, {"type": "position", "time": 26007, "x": null, "y": 0.5233333333333333}, {"type": "position", "time": 26057, "x": null, "y": 0.535}, {"type": "position", "time": 26108, "x": null, "y": 0.535}, {"type": "position", "time": 26157, "x": null, "y": 0.5366666666666666}, {"type": "position", "time": 26207, "x": null, "y": 0.545}, {"type": "position", "time": 26258, "x": null, "y": 0.55}, {"type": "click", "time": 26291, "x": null, "y": 0.55}, {"type": "position", "time": 26309, "x": null, "y": 0.55}, {"type": "position", "time": 26358, "x": null, "y": 0.5483333333333333}, {"type": "position", "time": 26410, "x": null, "y": 0.5483333333333333}, {"type": "position", "time": 26459, "x": null, "y": 0.5483333333333333}, {"type": "click", "time": 26471, "x": null, "y": 0.5483333333333333}, {"type": "position", "time": 26512, "x": null, "y": 0.5483333333333333}, {"type": "position", "time": 26561, "x": null, "y": 0.5483333333333333}, {"type": "position", "time": 26607, "x": null, "y": 0.5616666666666666}, {"type": "position", "time": 26658, "x": null, "y": 0.59}, {"type": "position", "time": 26709, "x": null, "y": 0.6066666666666667}, {"type": "position", "time": 26758, "x": null, "y": 0.61}, {"type": "position", "time": 26808, "x": null, "y": 0.6516666666666666}, {"type": "position", "time": 26857, "x": null, "y": 0.755}, {"type": "position", "time": 26907, "x": null, "y": 0.925}, {"type": "position", "time": 26959, "x": null, "y": 0.9333333333333333}, {"type": "position", "time": 27008, "x": null, "y": 0.93}, {"type": "position", "time": 27059, "x": null, "y": 0.9083333333333333}, {"type": "position", "time": 27108, "x": null, "y": 0.8716666666666667}, {"type": "position", "time": 27159, "x": null, "y": 0.8416666666666667}, {"type": "position", "time": 27208, "x": null, "y": 0.815}, {"type": "position", "time": 27258, "x": null, "y": 0.805}, {"type": "position", "time": 27307, "x": null, "y": 0.795}, {"type": "position", "time": 27357, "x": null, "y": 0.7766666666666666}, {"type": "position", "time": 27407, "x": null, "y": 0.76}, {"type": "position", "time": 27460, "x": null, "y": 0.7566666666666667}, {"type": "position", "time": 27509, "x": null, "y": 0.7566666666666667}, {"type": "position", "time": 27562, "x": null, "y": 0.7566666666666667}, {"type": "position", "time": 27612, "x": null, "y": 0.7566666666666667}, {"type": "position", "time": 27661, "x": null, "y": 0.7566666666666667}, {"type": "position", "time": 27712, "x": null, "y": 0.7566666666666667}, {"type": "position", "time": 27762, "x": null, "y": 0.7566666666666667}, {"type": "position", "time": 27807, "x": null, "y": 0.7566666666666667}, {"type": "position", "time": 27862, "x": null, "y": 0.7566666666666667}, {"type": "position", "time": 27907, "x": null, "y": 0.7516666666666667}, {"type": "position", "time": 27957, "x": null, "y": 0.7483333333333333}, {"type": "position", "time": 28009, "x": null, "y": 0.7416666666666667}, {"type": "position", "time": 28059, "x": null, "y": 0.7416666666666667}, {"type": "position", "time": 28109, "x": null, "y": 0.7416666666666667}, {"type": "position", "time": 28158, "x": null, "y": 0.7416666666666667}, {"type": "position", "time": 28209, "x": null, "y": 0.74}, {"type": "position", "time": 28258, "x": null, "y": 0.7416666666666667}, {"type": "position", "time": 28308, "x": null, "y": 0.7433333333333333}, {"type": "position", "time": 28360, "x": null, "y": 0.745}, {"type": "position", "time": 28408, "x": null, "y": 0.7433333333333333}, {"type": "position", "time": 28459, "x": null, "y": 0.74}, {"type": "position", "time": 28509, "x": null, "y": 0.7333333333333333}, {"type": "position", "time": 28558, "x": null, "y": 0.7333333333333333}, {"type": "position", "time": 28608, "x": null, "y": 0.7433333333333333}, {"type": "position", "time": 28660, "x": null, "y": 0.7466666666666667}, {"type": "position", "time": 28708, "x": null, "y": 0.75}, {"type": "position", "time": 28761, "x": null, "y": 0.75}, {"type": "position", "time": 28807, "x": null, "y": 0.75}, {"type": "position", "time": 28857, "x": null, "y": 0.7516666666666667}, {"type": "position", "time": 28907, "x": null, "y": 0.755}, {"type": "position", "time": 28957, "x": null, "y": 0.7583333333333333}, {"type": "position", "time": 29012, "x": null, "y": 0.76}, {"type": "click", "time": 29029, "x": null, "y": 0.76}, {"type": "position", "time": 29058, "x": null, "y": 0.76}, {"type": "position", "time": 29108, "x": null, "y": 0.7566666666666667}, {"type": "position", "time": 29158, "x": null, "y": 0.7516666666666667}, {"type": "position", "time": 29208, "x": null, "y": 0.745}, {"type": "position", "time": 29257, "x": null, "y": 0.7383333333333333}, {"type": "position", "time": 29307, "x": null, "y": 0.7333333333333333}, {"type": "position", "time": 29357, "x": null, "y": 0.7333333333333333}, {"type": "position", "time": 29409, "x": null, "y": 0.7283333333333334}, {"type": "position", "time": 29459, "x": null, "y": 0.72}, {"type": "position", "time": 29508, "x": null, "y": 0.715}, {"type": "position", "time": 29558, "x": null, "y": 0.7116666666666667}, {"type": "position", "time": 29607, "x": null, "y": 0.6983333333333334}, {"type": "position", "time": 29658, "x": null, "y": 0.6783333333333333}, {"type": "position", "time": 29707, "x": null, "y": 0.6383333333333333}, {"type": "position", "time": 29757, "x": null, "y": 0.595}, {"type": "position", "time": 29807, "x": null, "y": 0.5833333333333334}, {"type": "position", "time": 29859, "x": null, "y": 0.5833333333333334}, {"type": "slider", "time": 29900, "value": 0.19}, {"type": "position", "time": 29908, "x": null, "y": 0.5866666666666667}, {"type": "position", "time": 29958, "x": null, "y": 0.59}, {"type": "click", "time": 29994, "x": null, "y": 0.59}, {"type": "position", "time": 30009, "x": null, "y": 0.59}, {"type": "position", "time": 30057, "x": null, "y": 0.5916666666666667}, {"type": "position", "time": 30108, "x": null, "y": 0.595}, {"type": "position", "time": 30158, "x": null, "y": 0.615}, {"type": "position", "time": 30207, "x": null, "y": 0.6533333333333333}, {"type": "position", "time": 30257, "x": null, "y": 0.6716666666666666}, {"type": "position", "time": 30308, "x": null, "y": 0.6766666666666666}, {"type": "position", "time": 30360, "x": null, "y": 0.6783333333333333}, {"type": "position", "time": 30407, "x": null, "y": 0.68}, {"type": "click", "time": 30416, "x": null, "y": 0.68}, {"type": "position", "time": 30458, "x": null, "y": 0.6883333333333334}, {"type": "position", "time": 30507, "x": null, "y": 0.695}, {"type": "position", "time": 30560, "x": null, "y": 0.695}, {"type": "position", "time": 30610, "x": null, "y": 0.695}, {"type": "position", "time": 30660, "x": null, "y": 0.6966666666666667}, {"type": "position", "time": 30707, "x": null, "y": 0.6966666666666667}, {"type": "position", "time": 30759, "x": null, "y": 0.695}, {"type": "position", "time": 30808, "x": null, "y": 0.69}, {"type": "position", "time": 30858, "x": null, "y": 0.6866666666666666}, {"type": "position", "time": 30907, "x": null, "y": 0.675}, {"type": "position", "time": 30958, "x": null, "y": 0.635}, {"type": "position", "time": 31009, "x": null, "y": 0.5866666666666667}, {"type": "position", "time": 31057, "x": null, "y": 0.5716666666666667}, {"type": "position", "time": 31108, "x": null, "y": 0.5733333333333334}, {"type": "position", "time": 31157, "x": null, "y": 0.58}, {"type": "position", "time": 31207, "x": null, "y": 0.5966666666666667}, {"type": "position", "time": 31257, "x": null, "y": 0.6016666666666667}, {"type": "position", "time": 31308, "x": null, "y": 0.6016666666666667}, {"type": "position", "time": 31358, "x": null, "y": 0.5866666666666667}, {"type": "position", "time": 31407, "x": null, "y": 0.5783333333333334}, {"type": "position", "time": 31457, "x": null, "y": 0.5783333333333334}, {"type": "position", "time": 31507, "x": null, "y": 0.58}, {"type": "position", "time": 31558, "x": null, "y": 0.5883333333333334}, {"type": "position", "time": 31608, "x": null, "y": 0.5916666666666667}, {"type": "position", "time": 31659, "x": null, "y": 0.6066666666666667}, {"type": "position", "time": 31709, "x": null, "y": 0.615}, {"type": "position", "time": 31758, "x": null, "y": 0.62}, {"type": "position", "time": 31808, "x": null, "y": 0.625}, {"type": "position", "time": 31859, "x": null, "y": 0.6233333333333333}, {"type": "position", "time": 31909, "x": null, "y": 0.6133333333333333}, {"type": "position", "time": 31958, "x": null, "y": 0.6066666666666667}, {"type": "position", "time": 32008, "x": null, "y": 0.6033333333333334}, {"type": "position", "time": 32057, "x": null, "y": 0.6016666666666667}, {"type": "position", "time": 32107, "x": null, "y": 0.5983333333333334}, {"type": "position", "time": 32157, "x": null, "y": 0.5816666666666667}, {"type": "position", "time": 32207, "x": null, "y": 0.575}, {"type": "position", "time": 32257, "x": null, "y": 0.575}, {"type": "position", "time": 32309, "x": null, "y": 0.5816666666666667}, {"type": "position", "time": 32358, "x": null, "y": 0.5983333333333334}, {"type": "position", "time": 32408, "x": null, "y": 0.6016666666666667}, {"type": "slider", "time": 32444, "value": 0.52}, {"type": "position", "time": 32457, "x": null, "y": 0.6016666666666667}, {"type": "position", "time": 32507, "x": null, "y": 0.6016666666666667}, {"type": "position", "time": 32558, "x": null, "y": 0.6016666666666667}, {"type": "slider", "time": 32566, "value": 0.51}, {"type": "slider", "time": 32602, "value": 0.48}, {"type": "position", "time": 32607, "x": null, "y": 0.595}, {"type": "slider", "time": 32620, "value": 0.47}, {"type": "slider", "time": 32637, "value": 0.45}, {"type": "slider", "time": 32654, "value": 0.43}, {"type": "position", "time": 32657, "x": null, "y": 0.5866666666666667}, {"type": "slider", "time": 32672, "value": 0.4}, {"type": "slider", "time": 32689, "value": 0.38}, {"type": "slider", "time": 32706, "value": 0.37}, {"type": "position", "time": 32707, "x": null, "y": 0.5783333333333334}, {"type": "slider", "time": 32723, "value": 0.35}, {"type": "slider", "time": 32740, "value": 0.33}, {"type": "slider", "time": 32757, "value": 0.31}, {"type": "position", "time": 32757, "x": null, "y": 0.5783333333333334}, {"type": "slider", "time": 32775, "value": 0.3}, {"type": "slider", "time": 32792, "value": 0.29}, {"type": "position", "time": 32807, "x": null, "y": 0.5766666666666667}, {"type": "slider", "time": 32827, "value": 0.28}, {"type": "position", "time": 32858, "x": null, "y": 0.575}, {"type": "click", "time": 32893, "x": null, "y": 0.575}, {"type": "position", "time": 32908, "x": null, "y": 0.575}, {"type": "position", "time": 32957, "x": null, "y": 0.5783333333333334}, {"type": "position", "time": 33007, "x": null, "y": 0.615}, {"type": "position", "time": 33058, "x": null, "y": 0.6566666666666666}, {"type": "position", "time": 33108, "x": null, "y": 0.67}, {"type": "position", "time": 33157, "x": null, "y": 0.68}, {"type": "position", "time": 33208, "x": null, "y": 0.6833333333333333}, {"type": "position", "time": 33258, "x": null, "y": 0.6833333333333333}, {"type": "click", "time": 33279, "x": null, "y": 0.685}, {"type": "position", "time": 33307, "x": null, "y": 0.6933333333333334}, {"type": "position", "time": 33357, "x": null, "y": 0.7016666666666667}, {"type": "position", "time": 33409, "x": null, "y": 0.7033333333333334}, {"type": "position", "time": 33459, "x": null, "y": 0.7033333333333334}, {"type": "click", "time": 33461, "x": null, "y": 0.7033333333333334}, {"type": "position", "time": 33507, "x": null, "y": 0.705}, {"type": "position", "time": 33562, "x": null, "y": 0.705}, {"type": "position", "time": 33608, "x": null, "y": 0.7016666666666667}, {"type": "position", "time": 33658, "x": null, "y": 0.6983333333333334}, {"type": "position", "time": 33708, "x": null, "y": 0.6966666666666667}, {"type": "position", "time": 33758, "x": null, "y": 0.6933333333333334}, {"type": "position", "time": 33807, "x": null, "y": 0.685}, {"type": "position", "time": 33857, "x": null, "y": 0.635}, {"type": "position", "time": 33908, "x": null, "y": 0.5683333333333334}, {"type": "position", "time": 33957, "x": null, "y": 0.5433333333333333}, {"type": "position", "time": 34009, "x": null, "y": 0.5383333333333333}, {"type": "position", "time": 34059, "x": null, "y": 0.5383333333333333}, {"type": "position", "time": 34108, "x": null, "y": 0.5383333333333333}, {"type": "position", "time": 34157, "x": null, "y": 0.535}, {"type": "position", "time": 34207, "x": null, "y": 0.5266666666666666}, {"type": "position", "time": 34257, "x": null, "y": 0.5266666666666666}, {"type": "position", "time": 34309, "x": null, "y": 0.5266666666666666}, {"type": "position", "time": 34358, "x": null, "y": 0.5266666666666666}, {"type": "position", "time": 34409, "x": null, "y": 0.5266666666666666}, {"type": "position", "time": 34457, "x": null, "y": 0.535}, {"type": "click", "time": 34479, "x": null, "y": 0.5433333333333333}, {"type": "position", "time": 34508, "x": null, "y": 0.5483333333333333}, {"type": "position", "time": 34559, "x": null, "y": 0.5483333333333333}, {"type": "position", "time": 34607, "x": null, "y": 0.5483333333333333}, {"type": "position", "time": 34658, "x": null, "y": 0.5483333333333333}, {"type": "position", "time": 34708, "x": null, "y": 0.55}, {"type": "position", "time": 34758, "x": null, "y": 0.54}, {"type": "position", "time": 34807, "x": null, "y": 0.535}, {"type": "position", "time": 34857, "x": null, "y": 0.535}, {"type": "position", "time": 34907, "x": null, "y": 0.5366666666666666}, {"type": "position", "time": 34959, "x": null, "y": 0.5383333333333333}, {"type": "position", "time": 35008, "x": null, "y": 0.5383333333333333}, {"type": "position", "time": 35058, "x": null, "y": 0.535}, {"type": "position", "time": 35106, "x": null, "y": 0.535}, {"type": "slider", "time": 35117, "value": 0.68}, {"type": "position", "time": 35157, "x": null, "y": 0.535}, {"type": "position", "time": 35211, "x": null, "y": 0.535}, {"type": "position", "time": 35260, "x": null, "y": 0.535}, {"type": "click", "time": 35290, "x": null, "y": 0.535}, {"type": "position", "time": 35310, "x": null, "y": 0.535}, {"type": "position", "time": 35360, "x": null, "y": 0.535}, {"type": "position", "time": 35407, "x": null, "y": 0.535}, {"type": "position", "time": 35458, "x": null, "y": 0.535}, {"type": "position", "time": 35507, "x": null, "y": 0.535}, {"type": "position", "time": 35562, "x": null, "y": 0.535}, {"type": "position", "time": 35610, "x": null, "y": 0.535}, {"type": "position", "time": 35660, "x": null, "y": 0.535}, {"type": "position", "time": 35710, "x": null, "y": 0.535}, {"type": "position", "time": 35760, "x": null, "y": 0.535}, {"type": "position", "time": 35807, "x": null, "y": 0.535}, {"type": "position", "time": 35859, "x": null, "y": 0.5316666666666666}, {"type": "position", "time": 35908, "x": null, "y": 0.535}, {"type": "position", "time": 35958, "x": null, "y": 0.53}, {"type": "slider", "time": 35968, "value": 0.81}, {"type": "slider", "time": 36001, "value": 0.82}, {"type": "position", "time": 36007, "x": null, "y": 0.5233333333333333}, {"type": "slider", "time": 36035, "value": 0.83}, {"type": "position", "time": 36057, "x": null, "y": 0.5083333333333333}, {"type": "slider", "time": 36069, "value": 0.84}, {"type": "click", "time": 36075, "x": null, "y": 0.505}, {"type": "position", "time": 36107, "x": null, "y": 0.5033333333333333}, {"type": "position", "time": 36157, "x": null, "y": 0.505}, {"type": "position", "time": 36208, "x": null, "y": 0.5133333333333333}, {"type": "position", "time": 36258, "x": null, "y": 0.5133333333333333}, {"type": "position", "time": 36307, "x": null, "y": 0.5133333333333333}, {"type": "position", "time": 36358, "x": null, "y": 0.5083333333333333}, {"type": "position", "time": 36408, "x": null, "y": 0.505}, {"type": "position", "time": 36457, "x": null, "y": 0.505}, {"type": "position", "time": 36508, "x": null, "y": 0.505}, {"type": "click", "time": 36511, "x": null, "y": 0.505}, {"type": "position", "time": 36558, "x": null, "y": 0.505}, {"type": "position", "time": 36607, "x": null, "y": 0.505}, {"type": "position", "time": 36657, "x": null, "y": 0.5083333333333333}, {"type": "position", "time": 36707, "x": null, "y": 0.5133333333333333}, {"type": "position", "time": 36757, "x": null, "y": 0.52}, {"type": "position", "time": 36807, "x": null, "y": 0.5266666666666666}, {"type": "position", "time": 36858, "x": null, "y": 0.56}, {"type": "position", "time": 36908, "x": null, "y": 0.58}, {"type": "position", "time": 36958, "x": null, "y": 0.59}, {"type": "position", "time": 37008, "x": null, "y": 0.6}, {"type": "position", "time": 37057, "x": null, "y": 0.6183333333333333}, {"type": "position", "time": 37107, "x": null, "y": 0.6316666666666667}, {"type": "position", "time": 37157, "x": null, "y": 0.6366666666666667}, {"type": "position", "time": 37209, "x": null, "y": 0.6366666666666667}, {"type": "click", "time": 37251, "x": null, "y": 0.6366666666666667}, {"type": "position", "time": 37257, "x": null, "y": 0.6366666666666667}, {"type": "position", "time": 37311, "x": null, "y": 0.6366666666666667}, {"type": "position", "time": 37357, "x": null, "y": 0.6366666666666667}, {"type": "position", "time": 37408, "x": null, "y": 0.635}, {"type": "position", "time": 37457, "x": null, "y": 0.6283333333333333}, {"type": "position", "time": 37507, "x": null, "y": 0.57}, {"type": "position", "time": 37557, "x": null, "y": 0.5133333333333333}, {"type": "position", "time": 37607, "x": null, "y": 0.51}, {"type": "position", "time": 37657, "x": null, "y": 0.51}, {"type": "position", "time": 37707, "x": null, "y": 0.5133333333333333}, {"type": "position", "time": 37758, "x": null, "y": 0.5133333333333333}, {"type": "position", "time": 37807, "x": null, "y": 0.5133333333333333}, {"type": "position", "time": 37858, "x": null, "y": 0.5133333333333333}, {"type": "position", "time": 37906, "x": null, "y": 0.505}, {"type": "position", "time": 37958, "x": null, "y": 0.5033333333333333}, {"type": "position", "time": 38007, "x": null, "y": 0.5033333333333333}, {"type": "position", "time": 38061, "x": null, "y": 0.5033333333333333}, {"type": "click", "time": 38065, "x": null, "y": 0.5033333333333333}, {"type": "position", "time": 38108, "x": null, "y": 0.5033333333333333}, {"type": "position", "time": 38157, "x": null, "y": 0.5016666666666667}, {"type": "position", "time": 38208, "x": null, "y": 0.5016666666666667}, {"type": "position", "time": 38261, "x": null, "y": 0.5016666666666667}, {"type": "position", "time": 38308, "x": null, "y": 0.5016666666666667}, {"type": "position", "time": 38362, "x": null, "y": 0.5016666666666667}, {"type": "position", "time": 38412, "x": null, "y": 0.5016666666666667}, {"type": "position", "time": 38461, "x": null, "y": 0.5016666666666667}, {"type": "position", "time": 38511, "x": null, "y": 0.5016666666666667}, {"type": "position", "time": 38562, "x": null, "y": 0.5016666666666667}, {"type": "position", "time": 38612, "x": null, "y": 0.5016666666666667}, {"type": "position", "time": 38661, "x": null, "y": 0.5016666666666667}, {"type": "position", "time": 38710, "x": null, "y": 0.5016666666666667}, {"type": "position", "time": 38760, "x": null, "y": 0.5016666666666667}, {"type": "position", "time": 38812, "x": null, "y": 0.5016666666666667}, {"type": "position", "time": 38859, "x": null, "y": 0.5016666666666667}, {"type": "position", "time": 38908, "x": null, "y": 0.5016666666666667}, {"type": "position", "time": 38958, "x": null, "y": 0.5016666666666667}, {"type": "position", "time": 39007, "x": null, "y": 0.5016666666666667}, {"type": "position", "time": 39057, "x": null, "y": 0.5016666666666667}, {"type": "position", "time": 39108, "x": null, "y": 0.5016666666666667}, {"type": "keyup", "time": 39155, "key": "T", "keyCode": 84}, {"type": "position", "time": 39157, "x": null, "y": 0.5016666666666667}, {"type": "position", "time": 39207, "x": null, "y": 0.5016666666666667}, {"type": "keyup", "time": 39217, "key": "H", "keyCode": 72}, {"type": "position", "time": 39259, "x": null, "y": 0.5016666666666667}, {"type": "position", "time": 39310, "x": null, "y": 0.5016666666666667}, {"type": "keyup", "time": 39317, "key": "E", "keyCode": 69}, {"type": "position", "time": 39358, "x": null, "y": 0.5016666666666667}, {"type": "keyup", "time": 39405, "key": " ", "keyCode": 32}, {"type": "position", "time": 39407, "x": null, "y": 0.5016666666666667}, {"type": "position", "time": 39460, "x": null, "y": 0.5016666666666667}, {"type": "position", "time": 39507, "x": null, "y": 0.5016666666666667}, {"type": "position", "time": 39558, "x": null, "y": 0.5016666666666667}, {"type": "position", "time": 39607, "x": null, "y": 0.5016666666666667}, {"type": "keyup", "time": 39617, "key": "C", "keyCode": 67}, {"type": "position", "time": 39659, "x": null, "y": 0.5016666666666667}, {"type": "keyup", "time": 39705, "key": "A", "keyCode": 65}, {"type": "position", "time": 39707, "x": null, "y": 0.5016666666666667}, {"type": "position", "time": 39759, "x": null, "y": 0.5016666666666667}, {"type": "position", "time": 39807, "x": null, "y": 0.5016666666666667}, {"type": "keyup", "time": 39855, "key": "I", "keyCode": 73}, {"type": "position", "time": 39857, "x": null, "y": 0.5016666666666667}, {"type": "position", "time": 39908, "x": null, "y": 0.5016666666666667}, {"type": "position", "time": 39961, "x": null, "y": 0.5016666666666667}, {"type": "position", "time": 40010, "x": null, "y": 0.5016666666666667}, {"type": "position", "time": 40060, "x": null, "y": 0.5016666666666667}, {"type": "position", "time": 40107, "x": null, "y": 0.5016666666666667}, {"type": "position", "time": 40157, "x": null, "y": 0.5016666666666667}, {"type": "keyup", "time": 40180, "key": "\b", "keyCode": 8}, {"type": "position", "time": 40207, "x": null, "y": 0.5016666666666667}, {"type": "position", "time": 40261, "x": null, "y": 0.5016666666666667}, {"type": "keyup", "time": 40280, "key": "F", "keyCode": 70}, {"type": "position", "time": 40308, "x": null, "y": 0.5016666666666667}, {"type": "position", "time": 40357, "x": null, "y": 0.5016666666666667}, {"type": "position", "time": 40410, "x": null, "y": 0.5016666666666667}, {"type": "keyup", "time": 40455, "key": "F", "keyCode": 70}, {"type": "position", "time": 40457, "x": null, "y": 0.5016666666666667}, {"type": "position", "time": 40507, "x": null, "y": 0.5016666666666667}, {"type": "keyup", "time": 40517, "key": "I", "keyCode": 73}, {"type": "position", "time": 40559, "x": null, "y": 0.5016666666666667}, {"type": "position", "time": 40607, "x": null, "y": 0.5016666666666667}, {"type": "keyup", "time": 40630, "key": "E", "keyCode": 69}, {"type": "position", "time": 40657, "x": null, "y": 0.5016666666666667}, {"type": "position", "time": 40709, "x": null, "y": 0.5016666666666667}, {"type": "keyup", "time": 40717, "key": "N", "keyCode": 78}, {"type": "position", "time": 40757, "x": null, "y": 0.5016666666666667}, {"type": "position", "time": 40811, "x": null, "y": 0.5016666666666667}, {"type": "position", "time": 40859, "x": null, "y": 0.5016666666666667}, {"type": "keyup", "time": 40867, "key": "E", "keyCode": 69}, {"type": "position", "time": 40909, "x": null, "y": 0.5016666666666667}, {"type": "position", "time": 40960, "x": null, "y": 0.5016666666666667}, {"type": "position", "time": 41010, "x": null, "y": 0.5016666666666667}, {"type": "position", "time": 41059, "x": null, "y": 0.5016666666666667}, {"type": "position", "time": 41107, "x": null, "y": 0.5016666666666667}, {"type": "position", "time": 41158, "x": null, "y": 0.5016666666666667}, {"type": "position", "time": 41208, "x": null, "y": 0.5016666666666667}, {"type": "position", "time": 41260, "x": null, "y": 0.5016666666666667}, {"type": "position", "time": 41307, "x": null, "y": 0.5016666666666667}, {"type": "position", "time": 41361, "x": null, "y": 0.5016666666666667}, {"type": "position", "time": 41409, "x": null, "y": 0.5016666666666667}, {"type": "position", "time": 41459, "x": null, "y": 0.5016666666666667}, {"type": "position", "time": 41510, "x": null, "y": 0.5016666666666667}, {"type": "position", "time": 41557, "x": null, "y": 0.5016666666666667}, {"type": "position", "time": 41609, "x": null, "y": 0.5016666666666667}, {"type": "position", "time": 41657, "x": null, "y": 0.5016666666666667}, {"type": "position", "time": 41711, "x": null, "y": 0.5016666666666667}, {"type": "position", "time": 41761, "x": null, "y": 0.5016666666666667}, {"type": "position", "time": 41807, "x": null, "y": 0.5016666666666667}, {"type": "position", "time": 41859, "x": null, "y": 0.5016666666666667}, {"type": "position", "time": 41907, "x": null, "y": 0.5016666666666667}, {"type": "position", "time": 41961, "x": null, "y": 0.5016666666666667}, {"type": "position", "time": 42007, "x": null, "y": 0.5016666666666667}, {"type": "position", "time": 42057, "x": null, "y": 0.5016666666666667}, {"type": "position", "time": 42107, "x": null, "y": 0.5016666666666667}, {"type": "position", "time": 42156, "x": null, "y": 0.5016666666666667}, {"type": "position", "time": 42209, "x": null, "y": 0.5016666666666667}, {"type": "position", "time": 42257, "x": null, "y": 0.5016666666666667}, {"type": "position", "time": 42307, "x": null, "y": 0.5016666666666667}, {"type": "position", "time": 42360, "x": null, "y": 0.5016666666666667}, {"type": "position", "time": 42410, "x": null, "y": 0.5016666666666667}, {"type": "position", "time": 42459, "x": null, "y": 0.5016666666666667}, {"type": "position", "time": 42506, "x": null, "y": 0.5016666666666667}, {"type": "position", "time": 42556, "x": null, "y": 0.5016666666666667}, {"type": "keyup", "time": 42605, "key": "\b", "keyCode": 8}, {"type": "position", "time": 42607, "x": null, "y": 0.5016666666666667}, {"type": "position", "time": 42656, "x": null, "y": 0.5016666666666667}, {"type": "position", "time": 42711, "x": null, "y": 0.5016666666666667}, {"type": "keyup", "time": 42730, "key": "S", "keyCode": 83}, {"type": "position", "time": 42761, "x": null, "y": 0.5016666666666667}, {"type": "position", "time": 42807, "x": null, "y": 0.5016666666666667}, {"type": "position", "time": 42858, "x": null, "y": 0.5016666666666667}, {"type": "keyup", "time": 42880, "key": "H", "keyCode": 72}, {"type": "position", "time": 42911, "x": null, "y": 0.5016666666666667}, {"type": "position", "time": 42957, "x": null, "y": 0.5016666666666667}, {"type": "position", "time": 43011, "x": null, "y": 0.5016666666666667}, {"type": "keyup", "time": 43030, "key": "E", "keyCode": 69}, {"type": "position", "time": 43058, "x": null, "y": 0.5016666666666667}, {"type": "position", "time": 43106, "x": null, "y": 0.5016666666666667}, {"type": "keyup", "time": 43130, "key": " ", "keyCode": 32}, {"type": "position", "time": 43159, "x": null, "y": 0.5016666666666667}, {"type": "position", "time": 43210, "x": null, "y": 0.5016666666666667}, {"type": "keyup", "time": 43230, "key": "W", "keyCode": 87}, {"type": "position", "time": 43257, "x": null, "y": 0.5016666666666667}, {"type": "position", "time": 43308, "x": null, "y": 0.5016666666666667}, {"type": "position", "time": 43357, "x": null, "y": 0.5016666666666667}, {"type": "keyup", "time": 43392, "key": "A", "keyCode": 65}, {"type": "position", "time": 43408, "x": null, "y": 0.5016666666666667}, {"type": "keyup", "time": 43455, "key": "S", "keyCode": 83}, {"type": "position", "time": 43457, "x": null, "y": 0.5016666666666667}, {"type": "keyup", "time": 43505, "key": " ", "keyCode": 32}, {"type": "position", "time": 43507, "x": null, "y": 0.5016666666666667}, {"type": "position", "time": 43558, "x": null, "y": 0.5016666666666667}, {"type": "position", "time": 43608, "x": null, "y": 0.5016666666666667}, {"type": "position", "time": 43659, "x": null, "y": 0.5016666666666667}, {"type": "position", "time": 43707, "x": null, "y": 0.5016666666666667}, {"type": "position", "time": 43757, "x": null, "y": 0.5016666666666667}, {"type": "position", "time": 43809, "x": null, "y": 0.5016666666666667}, {"type": "position", "time": 43861, "x": null, "y": 0.5016666666666667}, {"type": "keyup", "time": 43867, "key": "V", "keyCode": 86}, {"type": "position", "time": 43911, "x": null, "y": 0.5016666666666667}, {"type": "position", "time": 43959, "x": null, "y": 0.5016666666666667}, {"type": "position", "time": 44009, "x": null, "y": 0.5016666666666667}, {"type": "keyup", "time": 44055, "key": "E", "keyCode": 69}, {"type": "position", "time": 44057, "x": null, "y": 0.5016666666666667}, {"type": "position", "time": 44106, "x": null, "y": 0.5016666666666667}, {"type": "keyup", "time": 44130, "key": "R", "keyCode": 82}, {"type": "keyup", "time": 44155, "key": "Y", "keyCode": 89}, {"type": "position", "time": 44157, "x": null, "y": 0.5016666666666667}, {"type": "position", "time": 44207, "x": null, "y": 0.5016666666666667}, {"type": "position", "time": 44257, "x": null, "y": 0.5016666666666667}, {"type": "keyup", "time": 44305, "key": " ", "keyCode": 32}, {"type": "position", "time": 44307, "x": null, "y": 0.5016666666666667}, {"type": "position", "time": 44357, "x": null, "y": 0.5016666666666667}, {"type": "keyup", "time": 44380, "key": "T", "keyCode": 84}, {"type": "position", "time": 44411, "x": null, "y": 0.5016666666666667}, {"type": "position", "time": 44457, "x": null, "y": 0.5016666666666667}, {"type": "position", "time": 44507, "x": null, "y": 0.5016666666666667}, {"type": "keyup", "time": 44517, "key": "I", "keyCode": 73}, {"type": "position", "time": 44561, "x": null, "y": 0.5016666666666667}, {"type": "keyup", "time": 44592, "key": "R", "keyCode": 82}, {"type": "position", "time": 44606, "x": null, "y": 0.5016666666666667}, {"type": "position", "time": 44661, "x": null, "y": 0.5016666666666667}, {"type": "keyup", "time": 44667, "key": "E", "keyCode": 69}, {"type": "position", "time": 44707, "x": null, "y": 0.5016666666666667}, {"type": "position", "time": 44757, "x": null, "y": 0.5016666666666667}, {"type": "position", "time": 44807, "x": null, "y": 0.5016666666666667}, {"type": "keyup", "time": 44817, "key": "D", "keyCode": 68}, {"type": "position", "time": 44857, "x": null, "y": 0.5016666666666667}, {"type": "position", "time": 44907, "x": null, "y": 0.5016666666666667}, {"type": "position", "time": 44957, "x": null, "y": 0.5016666666666667}, {"type": "keyup", "time": 45005, "key": "\t", "keyCode": 9}, {"type": "position", "time": 45007, "x": null, "y": 0.5016666666666667}, {"type": "keyup", "time": 45042, "key": " ", "keyCode": 32}, {"type": "click", "time": 45045, "x": null, "y": 0.5016666666666667}, {"type": "position", "time": 45056, "x": null, "y": 0.5016666666666667}, {"type": "position", "time": 45109, "x": null, "y": 0.5016666666666667}, {"type": "position", "time": 45156, "x": null, "y": 0.5016666666666667}, {"type": "position", "time": 45210, "x": null, "y": 0.5016666666666667}, {"type": "position", "time": 45259, "x": null, "y": 0.5016666666666667}, {"type": "position", "time": 45311, "x": null, "y": 0.5016666666666667}, {"type": "position", "time": 45359, "x": null, "y": 0.5016666666666667}, {"type": "position", "time": 45409, "x": null, "y": 0.5016666666666667}, {"type": "position", "time": 45459, "x": null, "y": 0.5016666666666667}, {"type": "position", "time": 45506, "x": null, "y": 0.5}, {"type": "position", "time": 45558, "x": null, "y": 0.5}, {"type": "position", "time": 45608, "x": null, "y": 0.5183333333333333}, {"type": "position", "time": 45657, "x": null, "y": 0.5283333333333333}, {"type": "position", "time": 45708, "x": null, "y": 0.5316666666666666}, {"type": "position", "time": 45757, "x": null, "y": 0.54}, {"type": "position", "time": 45808, "x": null, "y": 0.57}, {"type": "position", "time": 45857, "x": null, "y": 0.6416666666666667}, {"type": "position", "time": 45907, "x": null, "y": 0.6633333333333333}, {"type": "position", "time": 45956, "x": null, "y": 0.6683333333333333}, {"type": "position", "time": 46007, "x": null, "y": 0.6716666666666666}, {"type": "position", "time": 46059, "x": null, "y": 0.6716666666666666}, {"type": "position", "time": 46107, "x": null, "y": 0.6716666666666666}, {"type": "position", "time": 46157, "x": null, "y": 0.6716666666666666}, {"type": "position", "time": 46209, "x": null, "y": 0.67}, {"type": "position", "time": 46256, "x": null, "y": 0.6633333333333333}, {"type": "position", "time": 46307, "x": null, "y": 0.66}, {"type": "position", "time": 46358, "x": null, "y": 0.66}, {"type": "position", "time": 46411, "x": null, "y": 0.66}, {"type": "position", "time": 46457, "x": null, "y": 0.6583333333333333}, {"type": "position", "time": 46506, "x": null, "y": 0.655}, {"type": "position", "time": 46557, "x": null, "y": 0.6483333333333333}, {"type": "position", "time": 46607, "x": null, "y": 0.6466666666666666}, {"type": "slider", "time": 46639, "value": 0.64}, {"type": "slider", "time": 46642, "value": 0.63}, {"type": "position", "time": 46657, "x": null, "y": 0.6516666666666666}, {"type": "slider", "time": 46660, "value": 0.62}, {"type": "slider", "time": 46677, "value": 0.61}, {"type": "position", "time": 46707, "x": null, "y": 0.66}, {"type": "slider", "time": 46729, "value": 0.6}, {"type": "position", "time": 46758, "x": null, "y": 0.66}, {"type": "position", "time": 46807, "x": null, "y": 0.66}, {"type": "slider", "time": 46816, "value": 0.59}, {"type": "slider", "time": 46852, "value": 0.58}, {"type": "position", "time": 46857, "x": null, "y": 0.66}, {"type": "position", "time": 46910, "x": null, "y": 0.66}, {"type": "position", "time": 46960, "x": null, "y": 0.66}, {"type": "slider", "time": 46992, "value": 0.57}, {"type": "position", "time": 47008, "x": null, "y": 0.66}, {"type": "slider", "time": 47027, "value": 0.56}, {"type": "slider", "time": 47044, "value": 0.55}, {"type": "position", "time": 47057, "x": null, "y": 0.6633333333333333}, {"type": "slider", "time": 47078, "value": 0.53}, {"type": "slider", "time": 47096, "value": 0.51}, {"type": "position", "time": 47108, "x": null, "y": 0.6633333333333333}, {"type": "slider", "time": 47114, "value": 0.49}, {"type": "slider", "time": 47131, "value": 0.45}, {"type": "slider", "time": 47148, "value": 0.43}, {"type": "position", "time": 47157, "x": null, "y": 0.6616666666666666}, {"type": "slider", "time": 47166, "value": 0.4}, {"type": "slider", "time": 47183, "value": 0.39}, {"type": "slider", "time": 47200, "value": 0.37}, {"type": "position", "time": 47207, "x": null, "y": 0.665}, {"type": "slider", "time": 47217, "value": 0.34}, {"type": "slider", "time": 47234, "value": 0.33}, {"type": "position", "time": 47257, "x": null, "y": 0.675}, {"type": "slider", "time": 47268, "value": 0.32}, {"type": "slider", "time": 47286, "value": 0.31}, {"type": "position", "time": 47306, "x": null, "y": 0.675}, {"type": "position", "time": 47359, "x": null, "y": 0.675}, {"type": "position", "time": 47407, "x": null, "y": 0.675}, {"type": "slider", "time": 47456, "value": 0.3}, {"type": "position", "time": 47456, "x": null, "y": 0.675}, {"type": "position", "time": 47510, "x": null, "y": 0.675}, {"type": "position", "time": 47560, "x": null, "y": 0.675}, {"type": "position", "time": 47610, "x": null, "y": 0.675}, {"type": "click", "time": 47635, "x": null, "y": 0.675}, {"type": "position", "time": 47657, "x": null, "y": 0.675}, {"type": "position", "time": 47708, "x": null, "y": 0.69}, {"type": "position", "time": 47758, "x": null, "y": 0.7116666666666667}, {"type": "position", "time": 47808, "x": null, "y": 0.7183333333333334}, {"type": "position", "time": 47857, "x": null, "y": 0.7283333333333334}, {"type": "position", "time": 47906, "x": null, "y": 0.7483333333333333}, {"type": "position", "time": 47958, "x": null, "y": 0.7516666666666667}, {"type": "click", "time": 48001, "x": null, "y": 0.7516666666666667}, {"type": "position", "time": 48008, "x": null, "y": 0.7516666666666667}, {"type": "position", "time": 48057, "x": null, "y": 0.755}, {"type": "position", "time": 48107, "x": null, "y": 0.7566666666666667}, {"type": "position", "time": 48156, "x": null, "y": 0.7566666666666667}, {"type": "position", "time": 48207, "x": null, "y": 0.755}, {"type": "position", "time": 48258, "x": null, "y": 0.7433333333333333}, {"type": "position", "time": 48307, "x": null, "y": 0.7216666666666667}, {"type": "position", "time": 48356, "x": null, "y": 0.68}, {"type": "position", "time": 48407, "x": null, "y": 0.635}, {"type": "position", "time": 48456, "x": null, "y": 0.6083333333333333}, {"type": "position", "time": 48508, "x": null, "y": 0.595}, {"type": "position", "time": 48557, "x": null, "y": 0.5933333333333334}, {"type": "position", "time": 48608, "x": null, "y": 0.5933333333333334}, {"type": "position", "time": 48658, "x": null, "y": 0.5866666666666667}, {"type": "position", "time": 48707, "x": null, "y": 0.5733333333333334}, {"type": "position", "time": 48757, "x": null, "y": 0.555}, {"type": "slider", "time": 48801, "value": 0.36}, {"type": "position", "time": 48806, "x": null, "y": 0.5516666666666666}, {"type": "position", "time": 48858, "x": null, "y": 0.55}, {"type": "slider", "time": 48894, "value": 0.37}, {"type": "position", "time": 48907, "x": null, "y": 0.55}, {"type": "slider", "time": 48928, "value": 0.38}, {"type": "slider", "time": 48945, "value": 0.4}, {"type": "position", "time": 48958, "x": null, "y": 0.5566666666666666}, {"type": "slider", "time": 48962, "value": 0.41}, {"type": "slider", "time": 48980, "value": 0.43}, {"type": "slider", "time": 48998, "value": 0.48}, {"type": "position", "time": 49008, "x": null, "y": 0.5666666666666667}, {"type": "slider", "time": 49015, "value": 0.49}, {"type": "slider", "time": 49032, "value": 0.51}, {"type": "slider", "time": 49050, "value": 0.53}, {"type": "position", "time": 49056, "x": null, "y": 0.575}, {"type": "slider", "time": 49068, "value": 0.56}, {"type": "slider", "time": 49085, "value": 0.58}, {"type": "slider", "time": 49101, "value": 0.6}, {"type": "position", "time": 49107, "x": null, "y": 0.5783333333333334}, {"type": "slider", "time": 49118, "value": 0.61}, {"type": "slider", "time": 49136, "value": 0.64}, {"type": "slider", "time": 49153, "value": 0.65}, {"type": "position", "time": 49156, "x": null, "y": 0.5783333333333334}, {"type": "slider", "time": 49170, "value": 0.67}, {"type": "slider", "time": 49206, "value": 0.69}, {"type": "position", "time": 49206, "x": null, "y": 0.58}, {"type": "slider", "time": 49224, "value": 0.7}, {"type": "position", "time": 49258, "x": null, "y": 0.58}, {"type": "slider", "time": 49297, "value": 0.71}, {"type": "position", "time": 49308, "x": null, "y": 0.5783333333333334}, {"type": "slider", "time": 49349, "value": 0.72}, {"type": "position", "time": 49357, "x": null, "y": 0.5733333333333334}, {"type": "position", "time": 49409, "x": null, "y": 0.5716666666666667}, {"type": "slider", "time": 49417, "value": 0.73}, {"type": "position", "time": 49457, "x": null, "y": 0.57}, {"type": "slider", "time": 49469, "value": 0.74}, {"type": "slider", "time": 49486, "value": 0.75}, {"type": "slider", "time": 49505, "value": 0.76}, {"type": "position", "time": 49506, "x": null, "y": 0.57}, {"type": "slider", "time": 49521, "value": 0.77}, {"type": "slider", "time": 49538, "value": 0.78}, {"type": "slider", "time": 49555, "value": 0.79}, {"type": "position", "time": 49556, "x": null, "y": 0.5716666666666667}, {"type": "slider", "time": 49606, "value": 0.8}, {"type": "position", "time": 49607, "x": null, "y": 0.5716666666666667}, {"type": "position", "time": 49658, "x": null, "y": 0.5733333333333334}, {"type": "position", "time": 49709, "x": null, "y": 0.5733333333333334}, {"type": "position", "time": 49760, "x": null, "y": 0.5733333333333334}, {"type": "position", "time": 49809, "x": null, "y": 0.5733333333333334}, {"type": "position", "time": 49861, "x": null, "y": 0.5733333333333334}, {"type": "click", "time": 49897, "x": null, "y": 0.5733333333333334}, {"type": "position", "time": 49906, "x": null, "y": 0.575}, {"type": "position", "time": 49958, "x": null, "y": 0.6033333333333334}, {"type": "position", "time": 50008, "x": null, "y": 0.6433333333333333}, {"type": "position", "time": 50058, "x": null, "y": 0.6616666666666666}, {"type": "position", "time": 50108, "x": null, "y": 0.66}, {"type": "position", "time": 50157, "x": null, "y": 0.6533333333333333}, {"type": "position", "time": 50207, "x": null, "y": 0.675}, {"type": "position", "time": 50256, "x": null, "y": 0.6983333333333334}, {"type": "position", "time": 50306, "x": null, "y": 0.705}, {"type": "position", "time": 50358, "x": null, "y": 0.7066666666666667}, {"type": "position", "time": 50407, "x": null, "y": 0.7116666666666667}, {"type": "position", "time": 50459, "x": null, "y": 0.715}, {"type": "position", "time": 50508, "x": null, "y": 0.7233333333333334}, {"type": "position", "time": 50557, "x": null, "y": 0.7233333333333334}, {"type": "position", "time": 50607, "x": null, "y": 0.725}, {"type": "position", "time": 50656, "x": null, "y": 0.7216666666666667}, {"type": "position", "time": 50706, "x": null, "y": 0.7033333333333334}, {"type": "position", "time": 50756, "x": null, "y": 0.6833333333333333}, {"type": "position", "time": 50807, "x": null, "y": 0.68}, {"type": "position", "time": 50859, "x": null, "y": 0.6783333333333333}, {"type": "position", "time": 50908, "x": null, "y": 0.6816666666666666}, {"type": "position", "time": 50956, "x": null, "y": 0.6866666666666666}, {"type": "position", "time": 51009, "x": null, "y": 0.6866666666666666}, {"type": "position", "time": 51056, "x": null, "y": 0.6866666666666666}, {"type": "position", "time": 51110, "x": null, "y": 0.6866666666666666}, {"type": "position", "time": 51157, "x": null, "y": 0.6833333333333333}, {"type": "position", "time": 51209, "x": null, "y": 0.675}, {"type": "position", "time": 51258, "x": null, "y": 0.6666666666666666}, {"type": "position", "time": 51307, "x": null, "y": 0.6633333333333333}, {"type": "position", "time": 51359, "x": null, "y": 0.6633333333333333}, {"type": "position", "time": 51409, "x": null, "y": 0.6633333333333333}, {"type": "position", "time": 51457, "x": null, "y": 0.6616666666666666}, {"type": "position", "time": 51507, "x": null, "y": 0.6616666666666666}, {"type": "position", "time": 51558, "x": null, "y": 0.6616666666666666}, {"type": "position", "time": 51608, "x": null, "y": 0.6616666666666666}, {"type": "position", "time": 51658, "x": null, "y": 0.6616666666666666}, {"type": "position", "time": 51708, "x": null, "y": 0.6616666666666666}, {"type": "position", "time": 51761, "x": null, "y": 0.6616666666666666}, {"type": "position", "time": 51807, "x": null, "y": 0.6633333333333333}, {"type": "position", "time": 51856, "x": null, "y": 0.6666666666666666}, {"type": "position", "time": 51910, "x": null, "y": 0.6666666666666666}, {"type": "position", "time": 51958, "x": null, "y": 0.6666666666666666}, {"type": "position", "time": 52010, "x": nul