{"ApprovalTime": "2016-03-10T20:56:27Z", "SubmitTime": "2016-03-10T20:56:01Z", "AssignmentId": "3AZHRG4CU4K68WY82A2YJJ4FAKP03H", "HITId": "38G0E1M85M53D7EEUOHN21OJ7HQVU5", "answers": {"data": {"trials": [{"story": "Japan", "time": 35662, "name": "Kaitlyn", "rt": 24296, "blocknum": 0, "qtype": "probability", "response": 1, "trialnum": 1, "gender": "female", "qnum": 0}, {"story": "Japan", "time": 35662, "name": "Kaitlyn", "rt": 24296, "blocknum": 0, "qtype": "ungrammatical", "trialnum": 1, "gender": "female", "qnum": 0}, {"story": "Japan", "time": 94269, "name": "Jeff", "rt": 58605, "blocknum": 0, "qtype": "explanation", "response": "he was not awake.", "trialnum": 2, "gender": "male", "qnum": 1}, {"story": "Japan", "time": 103641, "name": "Jeff", "rt": 9358, "blocknum": 0, "qtype": "probability", "response": 0.17, "trialnum": 3, "gender": "male", "qnum": 2}, {"story": "Japan", "time": 103641, "name": "Jeff", "rt": 9358, "blocknum": 0, "qtype": "ungrammatical", "trialnum": 3, "gender": "male", "qnum": 2}, {"story": "Japan", "time": 127354, "name": "Timothy", "rt": 23705, "blocknum": 0, "qtype": "probability", "response": 0.49, "trialnum": 4, "gender": "male", "qnum": 3}, {"story": "Japan", "time": 127354, "name": "Timothy", "rt": 23705, "blocknum": 0, "qtype": "ungrammatical", "response": false, "trialnum": 4, "gender": "male", "qnum": 3}, {"story": "Japan", "time": 152066, "name": "Jessica", "rt": 24707, "blocknum": 0, "qtype": "probability", "response": 0.08, "trialnum": 5, "gender": "female", "qnum": 4}, {"story": "Japan", "time": 152066, "name": "Jessica", "rt": 24707, "blocknum": 0, "qtype": "ungrammatical", "response": true, "trialnum": 5, "gender": "female", "qnum": 4}, {"story": "Japan", "time": 160174, "name": "Kevin", "rt": 8103, "blocknum": 0, "qtype": "probability", "response": 0.04, "trialnum": 6, "gender": "male", "qnum": 5}, {"story": "Japan", "time": 160174, "name": "Kevin", "rt": 8103, "blocknum": 0, "qtype": "ungrammatical", "response": false, "trialnum": 6, "gender": "male", "qnum": 5}, {"story": "guitar", "time": 186627, "name": "Maria", "rt": 26447, "blocknum": 1, "qtype": "probability", "response": 1, "trialnum": 8, "gender": "female", "qnum": 0}, {"story": "guitar", "time": 186627, "name": "Maria", "rt": 26447, "blocknum": 1, "qtype": "ungrammatical", "trialnum": 8, "gender": "female", "qnum": 0}, {"story": "guitar", "time": 213332, "name": "Logan", "rt": 26703, "blocknum": 1, "qtype": "explanation", "response": "he used a pick", "trialnum": 9, "gender": "male", "qnum": 1}, {"story": "guitar", "time": 217783, "name": "Logan", "rt": 4444, "blocknum": 1, "qtype": "probability", "response": 0.91, "trialnum": 10, "gender": "male", "qnum": 2}, {"story": "guitar", "time": 217783, "name": "Logan", "rt": 4444, "blocknum": 1, "qtype": "ungrammatical", "trialnum": 10, "gender": "male", "qnum": 2}, {"story": "guitar", "time": 230465, "name": "Thomas", "rt": 12677, "blocknum": 1, "qtype": "probability", "response": 0.47, "trialnum": 11, "gender": "male", "qnum": 3}, {"story": "guitar", "time": 230465, "name": "Thomas", "rt": 12677, "blocknum": 1, "qtype": "ungrammatical", "response": false, "trialnum": 11, "gender": "male", "qnum": 3}, {"story": "guitar", "time": 254956, "name": "Christian", "rt": 24488, "blocknum": 1, "qtype": "probability", "response": 0.85, "trialnum": 12, "gender": "male", "qnum": 4}, {"story": "guitar", "time": 254956, "name": "Christian", "rt": 24488, "blocknum": 1, "qtype": "ungrammatical", "response": true, "trialnum": 12, "gender": "male", "qnum": 4}, {"story": "guitar", "time": 265716, "name": "Corey", "rt": 10755, "blocknum": 1, "qtype": "probability", "response": 0.9, "trialnum": 13, "gender": "male", "qnum": 5}, {"story": "guitar", "time": 265716, "name": "Corey", "rt": 10755, "blocknum": 1, "qtype": "ungrammatical", "response": true, "trialnum": 13, "gender": "male", "qnum": 5}, {"story": "insomnia", "time": 280655, "name": "Rebecca", "rt": 14930, "blocknum": 2, "qtype": "probability", "response": 0.99, "trialnum": 15, "gender": "female", "qnum": 0}, {"story": "insomnia", "time": 280655, "name": "Rebecca", "rt": 14930, "blocknum": 2, "qtype": "ungrammatical", "trialnum": 15, "gender": "female", "qnum": 0}, {"story": "insomnia", "time": 301076, "name": "Allison", "rt": 20418, "blocknum": 2, "qtype": "explanation", "response": "she took sleep medicine.", "trialnum": 16, "gender": "female", "qnum": 1}, {"story": "insomnia", "time": 308886, "name": "Allison", "rt": 7804, "blocknum": 2, "qtype": "probability", "response": 0.08, "trialnum": 17, "gender": "female", "qnum": 2}, {"story": "insomnia", "time": 308886, "name": "Allison", "rt": 7804, "blocknum": 2, "qtype": "ungrammatical", "trialnum": 17, "gender": "female", "qnum": 2}, {"story": "insomnia", "time": 327178, "name": "Kristen", "rt": 18288, "blocknum": 2, "qtype": "probability", "response": 0.77, "trialnum": 18, "gender": "female", "qnum": 3}, {"story": "insomnia", "time": 327178, "name": "Kristen", "rt": 18288, "blocknum": 2, "qtype": "ungrammatical", "response": false, "trialnum": 18, "gender": "female", "qnum": 3}, {"story": "insomnia", "time": 338025, "name": "Brianna", "rt": 10844, "blocknum": 2, "qtype": "probability", "response": 0.9, "trialnum": 19, "gender": "female", "qnum": 4}, {"story": "insomnia", "time": 338025, "name": "Brianna", "rt": 10844, "blocknum": 2, "qtype": "ungrammatical", "response": true, "trialnum": 19, "gender": "female", "qnum": 4}, {"story": "insomnia", "time": 345988, "name": "Marissa", "rt": 7958, "blocknum": 2, "qtype": "probability", "response": 0.07, "trialnum": 20, "gender": "female", "qnum": 5}, {"story": "insomnia", "time": 345988, "name": "Marissa", "rt": 7958, "blocknum": 2, "qtype": "ungrammatical", "response": false, "trialnum": 20, "gender": "female", "qnum": 5}, {"story": "painting", "time": 360326, "name": "Lindsey", "rt": 14333, "blocknum": 3, "qtype": "probability", "response": 0.99, "trialnum": 22, "gender": "female", "qnum": 0}, {"story": "painting", "time": 360326, "name": "Lindsey", "rt": 14333, "blocknum": 3, "qtype": "ungrammatical", "trialnum": 22, "gender": "female", "qnum": 0}, {"story": "painting", "time": 407324, "name": "Jenna", "rt": 46996, "blocknum": 3, "qtype": "explanation", "response": "she doesn't have raw talent.", "trialnum": 23, "gender": "female", "qnum": 1}, {"story": "painting", "time": 413426, "name": "Jenna", "rt": 6098, "blocknum": 3, "qtype": "probability", "response": 0.98, "trialnum": 24, "gender": "female", "qnum": 2}, {"story": "painting", "time": 413426, "name": "Jenna", "rt": 6098, "blocknum": 3, "qtype": "ungrammatical", "trialnum": 24, "gender": "female", "qnum": 2}, {"story": "painting", "time": 425217, "name": "Natalie", "rt": 11787, "blocknum": 3, "qtype": "probability", "response": 1, "trialnum": 25, "gender": "female", "qnum": 3}, {"story": "painting", "time": 425217, "name": "Natalie", "rt": 11787, "blocknum": 3, "qtype": "ungrammatical", "response": true, "trialnum": 25, "gender": "female", "qnum": 3}, {"story": "painting", "time": 440617, "name": "Jennifer", "rt": 15397, "blocknum": 3, "qtype": "probability", "response": 0.54, "trialnum": 26, "gender": "female", "qnum": 4}, {"story": "painting", "time": 440617, "name": "Jennifer", "rt": 15397, "blocknum": 3, "qtype": "ungrammatical", "response": false, "trialnum": 26, "gender": "female", "qnum": 4}, {"story": "painting", "time": 447635, "name": "Vanessa", "rt": 7014, "blocknum": 3, "qtype": "probability", "response": 1, "trialnum": 27, "gender": "female", "qnum": 5}, {"story": "painting", "time": 447635, "name": "Vanessa", "rt": 7014, "blocknum": 3, "qtype": "ungrammatical", "response": false, "trialnum": 27, "gender": "female", "qnum": 5}, {"story": "coffee", "time": 457420, "name": "Brian", "rt": 9781, "blocknum": 4, "qtype": "probability", "response": 1, "trialnum": 29, "gender": "male", "qnum": 0}, {"story": "coffee", "time": 457420, "name": "Brian", "rt": 9781, "blocknum": 4, "qtype": "ungrammatical", "trialnum": 29, "gender": "male", "qnum": 0}, {"story": "coffee", "time": 499788, "name": "Erin", "rt": 42367, "blocknum": 4, "qtype": "explanation", "response": "stopped drinking coffee at a certain time.", "trialnum": 30, "gender": "female", "qnum": 1}, {"story": "coffee", "time": 506173, "name": "Erin", "rt": 6381, "blocknum": 4, "qtype": "probability", "response": 0.57, "trialnum": 31, "gender": "female", "qnum": 2}, {"story": "coffee", "time": 506173, "name": "Erin", "rt": 6381, "blocknum": 4, "qtype": "ungrammatical", "trialnum": 31, "gender": "female", "qnum": 2}, {"story": "coffee", "time": 518104, "name": "Andrew", "rt": 11929, "blocknum": 4, "qtype": "probability", "response": 0.55, "trialnum": 32, "gender": "male", "qnum": 3}, {"story": "coffee", "time": 518104, "name": "Andrew", "rt": 11929, "blocknum": 4, "qtype": "ungrammatical", "response": true, "trialnum": 32, "gender": "male", "qnum": 3}, {"story": "coffee", "time": 532053, "name": "Laura", "rt": 13945, "blocknum": 4, "qtype": "probability", "response": 0.67, "trialnum": 33, "gender": "female", "qnum": 4}, {"story": "coffee", "time": 532053, "name": "Laura", "rt": 13945, "blocknum": 4, "qtype": "ungrammatical", "response": true, "trialnum": 33, "gender": "female", "qnum": 4}, {"story": "coffee", "time": 545595, "name": "Haley", "rt": 13539, "blocknum": 4, "qtype": "probability", "response": 0.52, "trialnum": 34, "gender": "female", "qnum": 5}, {"story": "coffee", "time": 545595, "name": "Haley", "rt": 13539, "blocknum": 4, "qtype": "ungrammatical", "response": false, "trialnum": 34, "gender": "female", "qnum": 5}, {"story": "fitness", "time": 556418, "name": "Destiny", "rt": 10820, "blocknum": 5, "qtype": "probability", "response": 0.99, "trialnum": 36, "gender": "female", "qnum": 0}, {"story": "fitness", "time": 556418, "name": "Destiny", "rt": 10820, "blocknum": 5, "qtype": "ungrammatical", "trialnum": 36, "gender": "female", "qnum": 0}, {"story": "fitness", "time": 569990, "name": "Juan", "rt": 13570, "blocknum": 5, "qtype": "explanation", "response": "she increased her calorie intake", "trialnum": 37, "gender": "male", "qnum": 1}, {"story": "fitness", "time": 573450, "name": "Juan", "rt": 3456, "blocknum": 5, "qtype": "probability", "response": 1, "trialnum": 38, "gender": "male", "qnum": 2}, {"story": "fitness", "time": 573450, "name": "Juan", "rt": 3456, "blocknum": 5, "qtype": "ungrammatical", "trialnum": 38, "gender": "male", "qnum": 2}, {"story": "fitness", "time": 585342, "name": "Jacqueline", "rt": 11890, "blocknum": 5, "qtype": "probability", "response": 1, "trialnum": 39, "gender": "female", "qnum": 3}, {"story": "fitness", "time": 585342, "name": "Jacqueline", "rt": 11890, "blocknum": 5, "qtype": "ungrammatical", "response": false, "trialnum": 39, "gender": "female", "qnum": 3}, {"story": "fitness", "time": 603466, "name": "Charles", "rt": 18120, "blocknum": 5, "qtype": "probability", "response": 0.87, "trialnum": 40, "gender": "male", "qnum": 4}, {"story": "fitness", "time": 603466, "name": "Charles", "rt": 18120, "blocknum": 5, "qtype": "ungrammatical", "response": true, "trialnum": 40, "gender": "male", "qnum": 4}, {"story": "fitness", "time": 609658, "name": "Kayla", "rt": 6187, "blocknum": 5, "qtype": "probability", "response": 1, "trialnum": 41, "gender": "female", "qnum": 5}, {"story": "fitness", "time": 609658, "name": "Kayla", "rt": 6187, "blocknum": 5, "qtype": "ungrammatical", "response": false, "trialnum": 41, "gender": "female", "qnum": 5}, {"story": "cooking", "time": 624563, "name": "Steven", "rt": 14901, "blocknum": 6, "qtype": "probability", "response": 1, "trialnum": 43, "gender": "male", "qnum": 0}, {"story": "cooking", "time": 624563, "name": "Steven", "rt": 14901, "blocknum": 6, "qtype": "ungrammatical", "trialnum": 43, "gender": "male", "qnum": 0}, {"story": "cooking", "time": 641928, "name": "Kelsey", "rt": 17363, "blocknum": 6, "qtype": "explanation", "response": "she wasn't focused.", "trialnum": 44, "gender": "female", "qnum": 1}, {"story": "cooking", "time": 647680, "name": "Kelsey", "rt": 5750, "blocknum": 6, "qtype": "probability", "response": 1, "trialnum": 45, "gender": "female", "qnum": 2}, {"story": "cooking", "time": 647680, "name": "Kelsey", "rt": 5750, "blocknum": 6, "qtype": "ungrammatical", "trialnum": 45, "gender": "female", "qnum": 2}, {"story": "cooking", "time": 655590, "name": "David", "rt": 7905, "blocknum": 6, "qtype": "probability", "response": 1, "trialnum": 46, "gender": "male", "qnum": 3}, {"story": "cooking", "time": 655590, "name": "David", "rt": 7905, "blocknum": 6, "qtype": "ungrammatical", "response": false, "trialnum": 46, "gender": "male", "qnum": 3}, {"story": "cooking", "time": 668415, "name": "Chelsea", "rt": 12823, "blocknum": 6, "qtype": "probability", "response": 0.86, "trialnum": 47, "gender": "female", "qnum": 4}, {"story": "cooking", "time": 668415, "name": "Chelsea", "rt": 12823, "blocknum": 6, "qtype": "ungrammatical", "response": false, "trialnum": 47, "gender": "female", "qnum": 4}, {"story": "cooking", "time": 673894, "name": "Madison", "rt": 5476, "blocknum": 6, "qtype": "probability", "response": 0.21, "trialnum": 48, "gender": "female", "qnum": 5}, {"story": "cooking", "time": 673894, "name": "Madison", "rt": 5476, "blocknum": 6, "qtype": "ungrammatical", "response": false, "trialnum": 48, "gender": "female", "qnum": 5}, {"story": "reading", "time": 688622, "name": "Crystal", "rt": 14725, "blocknum": 7, "qtype": "probability", "response": 1, "trialnum": 50, "gender": "female", "qnum": 0}, {"story": "reading", "time": 688622, "name": "Crystal", "rt": 14725, "blocknum": 7, "qtype": "ungrammatical", "trialnum": 50, "gender": "female", "qnum": 0}, {"story": "reading", "time": 704105, "name": "Paul", "rt": 15481, "blocknum": 7, "qtype": "explanation", "response": "he read a simple book.", "trialnum": 51, "gender": "male", "qnum": 1}, {"story": "reading", "time": 713768, "name": "Paul", "rt": 9661, "blocknum": 7, "qtype": "probability", "response": 0.51, "trialnum": 52, "gender": "male", "qnum": 2}, {"story": "reading", "time": 713768, "name": "Paul", "rt": 9661, "blocknum": 7, "qtype": "ungrammatical", "trialnum": 52, "gender": "male", "qnum": 2}, {"story": "reading", "time": 721331, "name": "Mark", "rt": 7561, "blocknum": 7, "qtype": "probability", "response": 0.83, "trialnum": 53, "gender": "male", "qnum": 3}, {"story": "reading", "time": 721331, "name": "Mark", "rt": 7561, "blocknum": 7, "qtype": "ungrammatical", "response": false, "trialnum": 53, "gender": "male", "qnum": 3}, {"story": "reading", "time": 728283, "name": "Bradley", "rt": 6949, "blocknum": 7, "qtype": "probability", "response": 0.92, "trialnum": 54, "gender": "male", "qnum": 4}, {"story": "reading", "time": 728283, "name": "Bradley", "rt": 6949, "blocknum": 7, "qtype": "ungrammatical", "response": false, "trialnum": 54, "gender": "male", "qnum": 4}, {"story": "reading", "time": 737584, "name": "Hannah", "rt": 9296, "blocknum": 7, "qtype": "probability", "response": 0.12, "trialnum": 55, "gender": "female", "qnum": 5}, {"story": "reading", "time": 737584, "name": "Hannah", "rt": 9296, "blocknum": 7, "qtype": "ungrammatical", "response": false, "trialnum": 55, "gender": "female", "qnum": 5}, {"story": "beach", "time": 748978, "name": "Stephanie", "rt": 11388, "blocknum": 8, "qtype": "probability", "response": 1, "trialnum": 57, "gender": "female", "qnum": 0}, {"story": "beach", "time": 748978, "name": "Stephanie", "rt": 11388, "blocknum": 8, "qtype": "ungrammatical", "trialnum": 57, "gender": "female", "qnum": 0}, {"story": "beach", "time": 764843, "name": "Rick", "rt": 15863, "blocknum": 8, "qtype": "explanation", "response": "there was a riptide alert", "trialnum": 58, "gender": "male", "qnum": 1}, {"story": "beach", "time": 767995, "name": "Rick", "rt": 3148, "blocknum": 8, "qtype": "probability", "response": 1, "trialnum": 59, "gender": "male", "qnum": 2}, {"story": "beach", "time": 767995, "name": "Rick", "rt": 3148, "blocknum": 8, "qtype": "ungrammatical", "trialnum": 59, "gender": "male", "qnum": 2}, {"story": "beach", "time": 774875, "name": "Michelle", "rt": 6877, "blocknum": 8, "qtype": "probability", "response": 1, "trialnum": 60, "gender": "female", "qnum": 3}, {"story": "beach", "time": 774875, "name": "Michelle", "rt": 6877, "blocknum": 8, "qtype": "ungrammatical", "response": false, "trialnum": 60, "gender": "female", "qnum": 3}, {"story": "beach", "time": 781625, "name": "Tiffany", "rt": 6748, "blocknum": 8, "qtype": "probability", "response": 1, "trialnum": 61, "gender": "female", "qnum": 4}, {"story": "beach", "time": 781625, "name": "Tiffany", "rt": 6748, "blocknum": 8, "qtype": "ungrammatical", "response": false, "trialnum": 61, "gender": "female", "qnum": 4}, {"story": "beach", "time": 787861, "name": "Jacob", "rt": 6234, "blocknum": 8, "qtype": "probability", "response": 1, "trialnum": 62, "gender": "male", "qnum": 5}, {"story": "beach", "time": 787861, "name": "Jacob", "rt": 6234, "blocknum": 8, "qtype": "ungrammatical", "response": false, "trialnum": 62, "gender": "male", "qnum": 5}], "events": [{"type": "position", "time": 71, "x": null, "y": 0.37166666666666665}, {"type": "position", "time": 121, "x": null, "y": 0.375}, {"type": "position", "time": 171, "x": null, "y": 0.375}, {"type": "position", "time": 221, "x": null, "y": 0.37666666666666665}, {"type": "position", "time": 275, "x": null, "y": 0.37666666666666665}, {"type": "position", "time": 326, "x": null, "y": 0.38166666666666665}, {"type": "position", "time": 377, "x": null, "y": 0.4166666666666667}, {"type": "position", "time": 428, "x": null, "y": 0.785}, {"type": "position", "time": 479, "x": null, "y": 0.7866666666666666}, {"type": "position", "time": 530, "x": null, "y": 0.7866666666666666}, {"type": "position", "time": 581, "x": null, "y": 0.8366666666666667}, {"type": "position", "time": 631, "x": null, "y": 0.8366666666666667}, {"type": "position", "time": 682, "x": null, "y": 0.8366666666666667}, {"type": "position", "time": 733, "x": null, "y": 0.8366666666666667}, {"type": "position", "time": 784, "x": null, "y": 0.8366666666666667}, {"type": "position", "time": 834, "x": null, "y": 0.8366666666666667}, {"type": "position", "time": 885, "x": null, "y": 0.8366666666666667}, {"type": "position", "time": 935, "x": null, "y": 0.8366666666666667}, {"type": "position", "time": 986, "x": null, "y": 0.8366666666666667}, {"type": "position", "time": 1036, "x": null, "y": 0.8366666666666667}, {"type": "position", "time": 1087, "x": null, "y": 0.8366666666666667}, {"type": "position", "time": 1137, "x": null, "y": 0.8366666666666667}, {"type": "position", "time": 1187, "x": null, "y": 0.8366666666666667}, {"type": "position", "time": 1238, "x": null, "y": 0.8366666666666667}, {"type": "position", "time": 1288, "x": null, "y": 0.8366666666666667}, {"type": "position", "time": 1338, "x": null, "y": 0.8366666666666667}, {"type": "position", "time": 1389, "x": null, "y": 0.8366666666666667}, {"type": "position", "time": 1439, "x": null, "y": 0.8366666666666667}, {"type": "position", "time": 1490, "x": null, "y": 0.8366666666666667}, {"type": "position", "time": 1541, "x": null, "y": 0.8366666666666667}, {"type": "position", "time": 1592, "x": null, "y": 0.8366666666666667}, {"type": "position", "time": 1643, "x": null, "y": 0.8366666666666667}, {"type": "position", "time": 1694, "x": null, "y": 0.8366666666666667}, {"type": "position", "time": 1746, "x": null, "y": 0.8366666666666667}, {"type": "position", "time": 1797, "x": null, "y": 0.8366666666666667}, {"type": "position", "time": 1847, "x": null, "y": 0.8366666666666667}, {"type": "position", "time": 1898, "x": null, "y": 0.8366666666666667}, {"type": "position", "time": 1948, "x": null, "y": 0.8366666666666667}, {"type": "position", "time": 1998, "x": null, "y": 0.8366666666666667}, {"type": "position", "time": 2048, "x": null, "y": 0.8366666666666667}, {"type": "position", "time": 2100, "x": null, "y": 0.8366666666666667}, {"type": "position", "time": 2151, "x": null, "y": 0.8366666666666667}, {"type": "position", "time": 2201, "x": null, "y": 0.8366666666666667}, {"type": "position", "time": 2251, "x": null, "y": 0.8366666666666667}, {"type": "position", "time": 2302, "x": null, "y": 0.8366666666666667}, {"type": "position", "time": 2352, "x": null, "y": 0.8366666666666667}, {"type": "position", "time": 2403, "x": null, "y": 0.8366666666666667}, {"type": "position", "time": 2453, "x": null, "y": 0.8366666666666667}, {"type": "position", "time": 2504, "x": null, "y": 0.8366666666666667}, {"type": "position", "time": 2554, "x": null, "y": 0.8366666666666667}, {"type": "position", "time": 2604, "x": null, "y": 0.8366666666666667}, {"type": "position", "time": 2655, "x": null, "y": 0.8366666666666667}, {"type": "position", "time": 2706, "x": null, "y": 0.8366666666666667}, {"type": "position", "time": 2757, "x": null, "y": 0.8366666666666667}, {"type": "position", "time": 2808, "x": null, "y": 0.8366666666666667}, {"type": "position", "time": 2859, "x": null, "y": 0.8366666666666667}, {"type": "position", "time": 2909, "x": null, "y": 0.8366666666666667}, {"type": "position", "time": 2960, "x": null, "y": 0.8366666666666667}, {"type": "position", "time": 3012, "x": null, "y": 0.8366666666666667}, {"type": "position", "time": 3063, "x": null, "y": 0.8366666666666667}, {"type": "position", "time": 3113, "x": null, "y": 0.8366666666666667}, {"type": "position", "time": 3163, "x": null, "y": 0.8366666666666667}, {"type": "position", "time": 3214, "x": null, "y": 0.8366666666666667}, {"type": "position", "time": 3265, "x": null, "y": 0.8366666666666667}, {"type": "position", "time": 3315, "x": null, "y": 0.8366666666666667}, {"type": "position", "time": 3366, "x": null, "y": 0.8366666666666667}, {"type": "position", "time": 3417, "x": null, "y": 0.8366666666666667}, {"type": "position", "time": 3468, "x": null, "y": 0.8366666666666667}, {"type": "position", "time": 3519, "x": null, "y": 0.8366666666666667}, {"type": "position", "time": 3569, "x": null, "y": 0.8366666666666667}, {"type": "position", "time": 3620, "x": null, "y": 0.8366666666666667}, {"type": "position", "time": 3671, "x": null, "y": 0.8366666666666667}, {"type": "position", "time": 3722, "x": null, "y": 0.8366666666666667}, {"type": "position", "time": 3772, "x": null, "y": 0.8366666666666667}, {"type": "position", "time": 3823, "x": null, "y": 0.8366666666666667}, {"type": "position", "time": 3873, "x": null, "y": 0.8366666666666667}, {"type": "position", "time": 3923, "x": null, "y": 0.8366666666666667}, {"type": "position", "time": 3974, "x": null, "y": 0.8366666666666667}, {"type": "position", "time": 4025, "x": null, "y": 0.8366666666666667}, {"type": "position", "time": 4076, "x": null, "y": 0.8366666666666667}, {"type": "position", "time": 4127, "x": null, "y": 0.8366666666666667}, {"type": "position", "time": 4178, "x": null, "y": 0.8366666666666667}, {"type": "position", "time": 4229, "x": null, "y": 0.8366666666666667}, {"type": "position", "time": 4281, "x": null, "y": 0.8366666666666667}, {"type": "position", "time": 4331, "x": null, "y": 0.8366666666666667}, {"type": "position", "time": 4382, "x": null, "y": 0.8366666666666667}, {"type": "position", "time": 4432, "x": null, "y": 0.8366666666666667}, {"type": "position", "time": 4482, "x": null, "y": 0.8366666666666667}, {"type": "position", "time": 4532, "x": null, "y": 0.8366666666666667}, {"type": "position", "time": 4583, "x": null, "y": 0.8366666666666667}, {"type": "position", "time": 4633, "x": null, "y": 0.8366666666666667}, {"type": "position", "time": 4684, "x": null, "y": 0.8366666666666667}, {"type": "position", "time": 4734, "x": null, "y": 0.8366666666666667}, {"type": "position", "time": 4784, "x": null, "y": 0.8366666666666667}, {"type": "position", "time": 4834, "x": null, "y": 0.8366666666666667}, {"type": "position", "time": 4885, "x": null, "y": 0.8366666666666667}, {"type": "position", "time": 4936, "x": null, "y": 0.8366666666666667}, {"type": "position", "time": 4987, "x": null, "y": 0.8366666666666667}, {"type": "position", "time": 5038, "x": null, "y": 0.8366666666666667}, {"type": "position", "time": 5089, "x": null, "y": 0.8366666666666667}, {"type": "position", "time": 5139, "x": null, "y": 0.8366666666666667}, {"type": "position", "time": 5189, "x": null, "y": 0.8366666666666667}, {"type": "position", "time": 5240, "x": null, "y": 0.8366666666666667}, {"type": "position", "time": 5290, "x": null, "y": 0.8366666666666667}, {"type": "position", "time": 5342, "x": null, "y": 0.8366666666666667}, {"type": "position", "time": 5393, "x": null, "y": 0.8366666666666667}, {"type": "position", "time": 5443, "x": null, "y": 0.8366666666666667}, {"type": "position", "time": 5494, "x": null, "y": 0.8366666666666667}, {"type": "position", "time": 5545, "x": null, "y": 0.8366666666666667}, {"type": "position", "time": 5596, "x": null, "y": 0.8366666666666667}, {"type": "position", "time": 5647, "x": null, "y": 0.8366666666666667}, {"type": "position", "time": 5698, "x": null, "y": 0.8366666666666667}, {"type": "position", "time": 5748, "x": null, "y": 0.8366666666666667}, {"type": "position", "time": 5798, "x": null, "y": 0.8366666666666667}, {"type": "position", "time": 5849, "x": null, "y": 0.8366666666666667}, {"type": "position", "time": 5900, "x": null, "y": 0.8366666666666667}, {"type": "position", "time": 5950, "x": null, "y": 0.8366666666666667}, {"type": "position", "time": 6001, "x": null, "y": 0.8366666666666667}, {"type": "position", "time": 6051, "x": null, "y": 0.8366666666666667}, {"type": "position", "time": 6101, "x": null, "y": 0.8366666666666667}, {"type": "position", "time": 6151, "x": null, "y": 0.8366666666666667}, {"type": "position", "time": 6201, "x": null, "y": 0.8366666666666667}, {"type": "position", "time": 6251, "x": null, "y": 0.8366666666666667}, {"type": "position", "time": 6302, "x": null, "y": 0.8366666666666667}, {"type": "position", "time": 6352, "x": null, "y": 0.8366666666666667}, {"type": "position", "time": 6403, "x": null, "y": 0.8366666666666667}, {"type": "position", "time": 6453, "x": null, "y": 0.8366666666666667}, {"type": "position", "time": 6504, "x": null, "y": 0.8366666666666667}, {"type": "position", "time": 6554, "x": null, "y": 0.8366666666666667}, {"type": "position", "time": 6604, "x": null, "y": 0.8366666666666667}, {"type": "position", "time": 6656, "x": null, "y": 0.8366666666666667}, {"type": "position", "time": 6706, "x": null, "y": 0.8366666666666667}, {"type": "position", "time": 6757, "x": null, "y": 0.8366666666666667}, {"type": "position", "time": 6808, "x": null, "y": 0.8366666666666667}, {"type": "position", "time": 6858, "x": null, "y": 0.8366666666666667}, {"type": "position", "time": 6909, "x": null, "y": 0.8366666666666667}, {"type": "position", "time": 6961, "x": null, "y": 0.8366666666666667}, {"type": "position", "time": 7012, "x": null, "y": 0.8366666666666667}, {"type": "position", "time": 7063, "x": null, "y": 0.8366666666666667}, {"type": "position", "time": 7114, "x": null, "y": 0.8366666666666667}, {"type": "position", "time": 7165, "x": null, "y": 0.8366666666666667}, {"type": "position", "time": 7215, "x": null, "y": 0.8366666666666667}, {"type": "position", "time": 7266, "x": null, "y": 0.8366666666666667}, {"type": "position", "time": 7316, "x": null, "y": 0.8366666666666667}, {"type": "position", "time": 7367, "x": null, "y": 0.8366666666666667}, {"type": "position", "time": 7418, "x": null, "y": 0.8366666666666667}, {"type": "position", "time": 7469, "x": null, "y": 0.8366666666666667}, {"type": "position", "time": 7519, "x": null, "y": 0.8366666666666667}, {"type": "position", "time": 7569, "x": null, "y": 0.8366666666666667}, {"type": "position", "time": 7619, "x": null, "y": 0.8366666666666667}, {"type": "position", "time": 7669, "x": null, "y": 0.8366666666666667}, {"type": "position", "time": 7720, "x": null, "y": 0.8366666666666667}, {"type": "position", "time": 7771, "x": null, "y": 0.8366666666666667}, {"type": "position", "time": 7821, "x": null, "y": 0.8366666666666667}, {"type": "position", "time": 7872, "x": null, "y": 0.8366666666666667}, {"type": "position", "time": 7922, "x": null, "y": 0.8366666666666667}, {"type": "position", "time": 7973, "x": null, "y": 0.8366666666666667}, {"type": "position", "time": 8023, "x": null, "y": 0.8366666666666667}, {"type": "position", "time": 8073, "x": null, "y": 0.8366666666666667}, {"type": "position", "time": 8124, "x": null, "y": 0.8366666666666667}, {"type": "position", "time": 8175, "x": null, "y": 0.8366666666666667}, {"type": "position", "time": 8226, "x": null, "y": 0.8366666666666667}, {"type": "position", "time": 8277, "x": null, "y": 0.8366666666666667}, {"type": "position", "time": 8328, "x": null, "y": 0.8366666666666667}, {"type": "position", "time": 8379, "x": null, "y": 0.8366666666666667}, {"type": "position", "time": 8429, "x": null, "y": 0.8366666666666667}, {"type": "position", "time": 8479, "x": null, "y": 0.8366666666666667}, {"type": "position", "time": 8529, "x": null, "y": 0.8366666666666667}, {"type": "position", "time": 8579, "x": null, "y": 0.8366666666666667}, {"type": "position", "time": 8630, "x": null, "y": 0.8366666666666667}, {"type": "position", "time": 8680, "x": null, "y": 0.8366666666666667}, {"type": "position", "time": 8730, "x": null, "y": 0.8366666666666667}, {"type": "position", "time": 8780, "x": null, "y": 0.8366666666666667}, {"type": "position", "time": 8830, "x": null, "y": 0.8366666666666667}, {"type": "position", "time": 8881, "x": null, "y": 0.8366666666666667}, {"type": "position", "time": 8932, "x": null, "y": 0.8366666666666667}, {"type": "position", "time": 8983, "x": null, "y": 0.8366666666666667}, {"type": "position", "time": 9033, "x": null, "y": 0.8366666666666667}, {"type": "position", "time": 9083, "x": null, "y": 0.8366666666666667}, {"type": "position", "time": 9133, "x": null, "y": 0.8366666666666667}, {"type": "position", "time": 9184, "x": null, "y": 0.8366666666666667}, {"type": "position", "time": 9235, "x": null, "y": 0.8366666666666667}, {"type": "position", "time": 9286, "x": null, "y": 0.8366666666666667}, {"type": "position", "time": 9337, "x": null, "y": 0.8366666666666667}, {"type": "position", "time": 9388, "x": null, "y": 0.8366666666666667}, {"type": "position", "time": 9439, "x": null, "y": 0.8366666666666667}, {"type": "position", "time": 9490, "x": null, "y": 0.8366666666666667}, {"type": "position", "time": 9541, "x": null, "y": 0.8366666666666667}, {"type": "position", "time": 9592, "x": null, "y": 0.8366666666666667}, {"type": "position", "time": 9643, "x": null, "y": 0.8366666666666667}, {"type": "position", "time": 9693, "x": null, "y": 0.8383333333333334}, {"type": "position", "time": 9743, "x": null, "y": 0.8583333333333333}, {"type": "position", "time": 9794, "x": null, "y": 0.8533333333333334}, {"type": "position", "time": 9844, "x": null, "y": 0.8316666666666667}, {"type": "position", "time": 9895, "x": null, "y": 0.7733333333333333}, {"type": "position", "time": 9946, "x": null, "y": 0.6883333333333334}, {"type": "position", "time": 9997, "x": null, "y": 0.6216666666666667}, {"type": "position", "time": 10047, "x": null, "y": 0.5883333333333334}, {"type": "position", "time": 10098, "x": null, "y": 0.555}, {"type": "position", "time": 10148, "x": null, "y": 0.5283333333333333}, {"type": "position", "time": 10198, "x": null, "y": 0.5033333333333333}, {"type": "position", "time": 10249, "x": null, "y": 0.4866666666666667}, {"type": "position", "time": 10299, "x": null, "y": 0.48}, {"type": "position", "time": 10350, "x": null, "y": 0.4766666666666667}, {"type": "position", "time": 10400, "x": null, "y": 0.4766666666666667}, {"type": "position", "time": 10451, "x": null, "y": 0.4766666666666667}, {"type": "position", "time": 10501, "x": null, "y": 0.4766666666666667}, {"type": "position", "time": 10552, "x": null, "y": 0.4766666666666667}, {"type": "position", "time": 10602, "x": null, "y": 0.4766666666666667}, {"type": "position", "time": 10652, "x": null, "y": 0.4766666666666667}, {"type": "position", "time": 10703, "x": null, "y": 0.4766666666666667}, {"type": "position", "time": 10753, "x": null, "y": 0.4766666666666667}, {"type": "position", "time": 10804, "x": null, "y": 0.4766666666666667}, {"type": "position", "time": 10856, "x": null, "y": 0.4766666666666667}, {"type": "position", "time": 10906, "x": null, "y": 0.4766666666666667}, {"type": "position", "time": 10958, "x": null, "y": 0.4766666666666667}, {"type": "position", "time": 11008, "x": null, "y": 0.4766666666666667}, {"type": "position", "time": 11059, "x": null, "y": 0.4766666666666667}, {"type": "position", "time": 11109, "x": null, "y": 0.47833333333333333}, {"type": "position", "time": 11160, "x": null, "y": 0.47833333333333333}, {"type": "position", "time": 11210, "x": null, "y": 0.47833333333333333}, {"type": "position", "time": 11261, "x": null, "y": 0.47833333333333333}, {"type": "position", "time": 11312, "x": null, "y": 0.47833333333333333}, {"type": "click", "time": 11366, "x": null, "y": 0.47833333333333333}, {"type": "position", "time": 11368, "x": null, "y": 0.47833333333333333}, {"type": "position", "time": 11416, "x": null, "y": 0.47833333333333333}, {"type": "position", "time": 11467, "x": null, "y": 0.47833333333333333}, {"type": "position", "time": 11520, "x": null, "y": 0.47833333333333333}, {"type": "position", "time": 11570, "x": null, "y": 0.47833333333333333}, {"type": "position", "time": 11620, "x": null, "y": 0.47833333333333333}, {"type": "position", "time": 11671, "x": null, "y": 0.47833333333333333}, {"type": "position", "time": 11721, "x": null, "y": 0.47833333333333333}, {"type": "position", "time": 11772, "x": null, "y": 0.47833333333333333}, {"type": "position", "time": 11822, "x": null, "y": 0.47833333333333333}, {"type": "position", "time": 11873, "x": null, "y": 0.47833333333333333}, {"type": "position", "time": 11923, "x": null, "y": 0.47833333333333333}, {"type": "position", "time": 11974, "x": null, "y": 0.51}, {"type": "position", "time": 12025, "x": null, "y": 0.5533333333333333}, {"type": "position", "time": 12076, "x": null, "y": 0.5733333333333334}, {"type": "position", "time": 12126, "x": null, "y": 0.5933333333333334}, {"type": "position", "time": 12176, "x": null, "y": 0.5966666666666667}, {"type": "position", "time": 12227, "x": null, "y": 0.5966666666666667}, {"type": "position", "time": 12278, "x": null, "y": 0.5966666666666667}, {"type": "position", "time": 12329, "x": null, "y": 0.5966666666666667}, {"type": "position", "time": 12381, "x": null, "y": 0.5416666666666666}, {"type": "position", "time": 12431, "x": null, "y": 0.36333333333333334}, {"type": "position", "time": 12482, "x": null, "y": 0.36333333333333334}, {"type": "position", "time": 12532, "x": null, "y": 0.14833333333333334}, {"type": "position", "time": 12583, "x": null, "y": 0.14833333333333334}, {"type": "position", "time": 12634, "x": null, "y": 0.14833333333333334}, {"type": "position", "time": 12685, "x": null, "y": 0.14833333333333334}, {"type": "position", "time": 12735, "x": null, "y": 0.14833333333333334}, {"type": "position", "time": 12786, "x": null, "y": 0.14833333333333334}, {"type": "position", "time": 12836, "x": null, "y": 0.14833333333333334}, {"type": "position", "time": 12887, "x": null, "y": 0.14833333333333334}, {"type": "position", "time": 12938, "x": null, "y": 0.14833333333333334}, {"type": "position", "time": 12989, "x": null, "y": 0.305}, {"type": "position", "time": 13040, "x": null, "y": 0.305}, {"type": "position", "time": 13092, "x": null, "y": 0.305}, {"type": "position", "time": 13143, "x": null, "y": 0.305}, {"type": "position", "time": 13193, "x": null, "y": 0.305}, {"type": "position", "time": 13243, "x": null, "y": 0.31166666666666665}, {"type": "position", "time": 13294, "x": null, "y": 0.31166666666666665}, {"type": "position", "time": 13344, "x": null, "y": 0.31166666666666665}, {"type": "position", "time": 13395, "x": null, "y": 0.33666666666666667}, {"type": "position", "time": 13445, "x": null, "y": 0.435}, {"type": "position", "time": 13495, "x": null, "y": 0.5483333333333333}, {"type": "position", "time": 13548, "x": null, "y": 0.5716666666666667}, {"type": "position", "time": 13601, "x": null, "y": 0.5716666666666667}, {"type": "position", "time": 13652, "x": null, "y": 0.5666666666666667}, {"type": "position", "time": 13703, "x": null, "y": 0.5666666666666667}, {"type": "position", "time": 13753, "x": null, "y": 0.5666666666666667}, {"type": "position", "time": 13804, "x": null, "y": 0.565}, {"type": "position", "time": 13855, "x": null, "y": 0.565}, {"type": "position", "time": 13906, "x": null, "y": 0.565}, {"type": "position", "time": 13958, "x": null, "y": 0.565}, {"type": "position", "time": 14009, "x": null, "y": 0.565}, {"type": "position", "time": 14060, "x": null, "y": 0.565}, {"type": "position", "time": 14110, "x": null, "y": 0.565}, {"type": "position", "time": 14161, "x": null, "y": 0.565}, {"type": "position", "time": 14211, "x": null, "y": 0.565}, {"type": "position", "time": 14261, "x": null, "y": 0.565}, {"type": "position", "time": 14311, "x": null, "y": 0.565}, {"type": "position", "time": 14362, "x": null, "y": 0.565}, {"type": "position", "time": 14413, "x": null, "y": 0.565}, {"type": "position", "time": 14463, "x": null, "y": 0.565}, {"type": "position", "time": 14514, "x": null, "y": 0.565}, {"type": "position", "time": 14564, "x": null, "y": 0.565}, {"type": "position", "time": 14614, "x": null, "y": 0.565}, {"type": "position", "time": 14664, "x": null, "y": 0.565}, {"type": "position", "time": 14715, "x": null, "y": 0.565}, {"type": "position", "time": 14766, "x": null, "y": 0.565}, {"type": "position", "time": 14817, "x": null, "y": 0.565}, {"type": "position", "time": 14868, "x": null, "y": 0.565}, {"type": "position", "time": 14918, "x": null, "y": 0.565}, {"type": "position", "time": 14968, "x": null, "y": 0.565}, {"type": "position", "time": 15018, "x": null, "y": 0.565}, {"type": "position", "time": 15068, "x": null, "y": 0.565}, {"type": "position", "time": 15119, "x": null, "y": 0.565}, {"type": "position", "time": 15169, "x": null, "y": 0.565}, {"type": "position", "time": 15221, "x": null, "y": 0.565}, {"type": "position", "time": 15272, "x": null, "y": 0.565}, {"type": "position", "time": 15323, "x": null, "y": 0.565}, {"type": "position", "time": 15374, "x": null, "y": 0.565}, {"type": "position", "time": 15425, "x": null, "y": 0.565}, {"type": "position", "time": 15476, "x": null, "y": 0.565}, {"type": "position", "time": 15527, "x": null, "y": 0.565}, {"type": "position", "time": 15578, "x": null, "y": 0.565}, {"type": "position", "time": 15629, "x": null, "y": 0.565}, {"type": "position", "time": 15679, "x": null, "y": 0.565}, {"type": "position", "time": 15730, "x": null, "y": 0.565}, {"type": "position", "time": 15781, "x": null, "y": 0.565}, {"type": "position", "time": 15832, "x": null, "y": 0.565}, {"type": "position", "time": 15882, "x": null, "y": 0.565}, {"type": "position", "time": 15933, "x": null, "y": 0.565}, {"type": "position", "time": 15983, "x": null, "y": 0.565}, {"type": "position", "time": 16035, "x": null, "y": 0.565}, {"type": "position", "time": 16085, "x": null, "y": 0.565}, {"type": "position", "time": 16135, "x": null, "y": 0.565}, {"type": "position", "time": 16186, "x": null, "y": 0.565}, {"type": "position", "time": 16236, "x": null, "y": 0.565}, {"type": "position", "time": 16287, "x": null, "y": 0.565}, {"type": "position", "time": 16338, "x": null, "y": 0.565}, {"type": "position", "time": 16388, "x": null, "y": 0.565}, {"type": "position", "time": 16439, "x": null, "y": 0.565}, {"type": "position", "time": 16490, "x": null, "y": 0.565}, {"type": "position", "time": 16541, "x": null, "y": 0.565}, {"type": "position", "time": 16591, "x": null, "y": 0.565}, {"type": "position", "time": 16642, "x": null, "y": 0.565}, {"type": "position", "time": 16693, "x": null, "y": 0.5683333333333334}, {"type": "position", "time": 16743, "x": null, "y": 0.5683333333333334}, {"type": "position", "time": 16794, "x": null, "y": 0.5683333333333334}, {"type": "position", "time": 16844, "x": null, "y": 0.5683333333333334}, {"type": "position", "time": 16894, "x": null, "y": 0.5683333333333334}, {"type": "position", "time": 16945, "x": null, "y": 0.5683333333333334}, {"type": "position", "time": 16996, "x": null, "y": 0.5683333333333334}, {"type": "position", "time": 17047, "x": null, "y": 0.5683333333333334}, {"type": "position", "time": 17097, "x": null, "y": 0.5683333333333334}, {"type": "position", "time": 17148, "x": null, "y": 0.5683333333333334}, {"type": "position", "time": 17199, "x": null, "y": 0.5683333333333334}, {"type": "position", "time": 17250, "x": null, "y": 0.5683333333333334}, {"type": "position", "time": 17301, "x": null, "y": 0.5683333333333334}, {"type": "position", "time": 17352, "x": null, "y": 0.5683333333333334}, {"type": "position", "time": 17402, "x": null, "y": 0.5683333333333334}, {"type": "position", "time": 17453, "x": null, "y": 0.5683333333333334}, {"type": "position", "time": 17504, "x": null, "y": 0.5683333333333334}, {"type": "position", "time": 17555, "x": null, "y": 0.5683333333333334}, {"type": "position", "time": 17606, "x": null, "y": 0.5683333333333334}, {"type": "position", "time": 17658, "x": null, "y": 0.5683333333333334}, {"type": "position", "time": 17709, "x": null, "y": 0.5683333333333334}, {"type": "position", "time": 17759, "x": null, "y": 0.5683333333333334}, {"type": "position", "time": 17810, "x": null, "y": 0.5683333333333334}, {"type": "position", "time": 17860, "x": null, "y": 0.5683333333333334}, {"type": "position", "time": 17912, "x": null, "y": 0.5683333333333334}, {"type": "position", "time": 17962, "x": null, "y": 0.5683333333333334}, {"type": "position", "time": 18013, "x": null, "y": 0.5683333333333334}, {"type": "position", "time": 18064, "x": null, "y": 0.5683333333333334}, {"type": "position", "time": 18114, "x": null, "y": 0.5683333333333334}, {"type": "position", "time": 18165, "x": null, "y": 0.5683333333333334}, {"type": "position", "time": 18216, "x": null, "y": 0.5683333333333334}, {"type": "position", "time": 18267, "x": null, "y": 0.5683333333333334}, {"type": "position", "time": 18318, "x": null, "y": 0.5683333333333334}, {"type": "position", "time": 18369, "x": null, "y": 0.5683333333333334}, {"type": "position", "time": 18419, "x": null, "y": 0.5683333333333334}, {"type": "position", "time": 18470, "x": null, "y": 0.5683333333333334}, {"type": "position", "time": 18521, "x": null, "y": 0.5683333333333334}, {"type": "position", "time": 18572, "x": null, "y": 0.5683333333333334}, {"type": "position", "time": 18623, "x": null, "y": 0.5683333333333334}, {"type": "position", "time": 18674, "x": null, "y": 0.5683333333333334}, {"type": "position", "time": 18725, "x": null, "y": 0.5683333333333334}, {"type": "position", "time": 18777, "x": null, "y": 0.5683333333333334}, {"type": "position", "time": 18827, "x": null, "y": 0.5683333333333334}, {"type": "position", "time": 18877, "x": null, "y": 0.5683333333333334}, {"type": "position", "time": 18928, "x": null, "y": 0.5683333333333334}, {"type": "position", "time": 18978, "x": null, "y": 0.5683333333333334}, {"type": "position", "time": 19029, "x": null, "y": 0.5683333333333334}, {"type": "position", "time": 19079, "x": null, "y": 0.5683333333333334}, {"type": "position", "time": 19129, "x": null, "y": 0.5683333333333334}, {"type": "position", "time": 19180, "x": null, "y": 0.5683333333333334}, {"type": "position", "time": 19231, "x": null, "y": 0.5683333333333334}, {"type": "position", "time": 19281, "x": null, "y": 0.5683333333333334}, {"type": "position", "time": 19332, "x": null, "y": 0.5683333333333334}, {"type": "position", "time": 19382, "x": null, "y": 0.5683333333333334}, {"type": "position", "time": 19433, "x": null, "y": 0.5683333333333334}, {"type": "position", "time": 19483, "x": null, "y": 0.5683333333333334}, {"type": "position", "time": 19534, "x": null, "y": 0.5683333333333334}, {"type": "position", "time": 19585, "x": null, "y": 0.5683333333333334}, {"type": "position", "time": 19635, "x": null, "y": 0.5683333333333334}, {"type": "position", "time": 19686, "x": null, "y": 0.5683333333333334}, {"type": "position", "time": 19736, "x": null, "y": 0.5683333333333334}, {"type": "position", "time": 19788, "x": null, "y": 0.5683333333333334}, {"type": "position", "time": 19839, "x": null, "y": 0.5683333333333334}, {"type": "position", "time": 19890, "x": null, "y": 0.5683333333333334}, {"type": "position", "time": 19941, "x": null, "y": 0.5683333333333334}, {"type": "position", "time": 19992, "x": null, "y": 0.5683333333333334}, {"type": "position", "time": 20044, "x": null, "y": 0.5683333333333334}, {"type": "position", "time": 20095, "x": null, "y": 0.5683333333333334}, {"type": "position", "time": 20146, "x": null, "y": 0.5683333333333334}, {"type": "position", "time": 20197, "x": null, "y": 0.5683333333333334}, {"type": "position", "time": 20247, "x": null, "y": 0.5683333333333334}, {"type": "position", "time": 20298, "x": null, "y": 0.5683333333333334}, {"type": "position", "time": 20349, "x": null, "y": 0.5683333333333334}, {"type": "position", "time": 20400, "x": null, "y": 0.5683333333333334}, {"type": "position", "time": 20450, "x": null, "y": 0.5683333333333334}, {"type": "position", "time": 20501, "x": null, "y": 0.5683333333333334}, {"type": "position", "time": 20552, "x": null, "y": 0.5683333333333334}, {"type": "position", "time": 20602, "x": null, "y": 0.5683333333333334}, {"type": "position", "time": 20653, "x": null, "y": 0.5683333333333334}, {"type": "position", "time": 20703, "x": null, "y": 0.5683333333333334}, {"type": "position", "time": 20754, "x": null, "y": 0.5683333333333334}, {"type": "position", "time": 20804, "x": null, "y": 0.5683333333333334}, {"type": "position", "time": 20855, "x": null, "y": 0.5683333333333334}, {"type": "position", "time": 20906, "x": null, "y": 0.5683333333333334}, {"type": "position", "time": 20957, "x": null, "y": 0.5683333333333334}, {"type": "position", "time": 21008, "x": null, "y": 0.5683333333333334}, {"type": "position", "time": 21059, "x": null, "y": 0.5683333333333334}, {"type": "position", "time": 21109, "x": null, "y": 0.5683333333333334}, {"type": "position", "time": 21160, "x": null, "y": 0.5683333333333334}, {"type": "position", "time": 21211, "x": null, "y": 0.5683333333333334}, {"type": "position", "time": 21262, "x": null, "y": 0.5683333333333334}, {"type": "position", "time": 21313, "x": null, "y": 0.5683333333333334}, {"type": "position", "time": 21364, "x": null, "y": 0.5683333333333334}, {"type": "position", "time": 21414, "x": null, "y": 0.5683333333333334}, {"type": "position", "time": 21465, "x": null, "y": 0.5683333333333334}, {"type": "position", "time": 21516, "x": null, "y": 0.5683333333333334}, {"type": "position", "time": 21566, "x": null, "y": 0.5683333333333334}, {"type": "position", "time": 21617, "x": null, "y": 0.5683333333333334}, {"type": "position", "time": 21668, "x": null, "y": 0.5683333333333334}, {"type": "position", "time": 21719, "x": null, "y": 0.5683333333333334}, {"type": "position", "time": 21769, "x": null, "y": 0.5683333333333334}, {"type": "position", "time": 21820, "x": null, "y": 0.5683333333333334}, {"type": "position", "time": 21870, "x": null, "y": 0.5683333333333334}, {"type": "position", "time": 21921, "x": null, "y": 0.5683333333333334}, {"type": "position", "time": 21972, "x": null, "y": 0.5683333333333334}, {"type": "position", "time": 22023, "x": null, "y": 0.5683333333333334}, {"type": "position", "time": 22074, "x": null, "y": 0.5683333333333334}, {"type": "position", "time": 22125, "x": null, "y": 0.5683333333333334}, {"type": "position", "time": 22176, "x": null, "y": 0.5683333333333334}, {"type": "position", "time": 22227, "x": null, "y": 0.5683333333333334}, {"type": "position", "time": 22278, "x": null, "y": 0.5683333333333334}, {"type": "position", "time": 22328, "x": null, "y": 0.5683333333333334}, {"type": "position", "time": 22379, "x": null, "y": 0.5683333333333334}, {"type": "position", "time": 22430, "x": null, "y": 0.5683333333333334}, {"type": "position", "time": 22480, "x": null, "y": 0.5683333333333334}, {"type": "position", "time": 22531, "x": null, "y": 0.5683333333333334}, {"type": "position", "time": 22581, "x": null, "y": 0.5683333333333334}, {"type": "position", "time": 22632, "x": null, "y": 0.5683333333333334}, {"type": "position", "time": 22683, "x": null, "y": 0.5683333333333334}, {"type": "position", "time": 22733, "x": null, "y": 0.5683333333333334}, {"type": "position", "time": 22784, "x": null, "y": 0.5683333333333334}, {"type": "position", "time": 22834, "x": null, "y": 0.5683333333333334}, {"type": "position", "time": 22884, "x": null, "y": 0.5683333333333334}, {"type": "position", "time": 22935, "x": null, "y": 0.5683333333333334}, {"type": "position", "time": 22985, "x": null, "y": 0.5683333333333334}, {"type": "position", "time": 23036, "x": null, "y": 0.5683333333333334}, {"type": "position", "time": 23086, "x": null, "y": 0.5683333333333334}, {"type": "position", "time": 23136, "x": null, "y": 0.5683333333333334}, {"type": "position", "time": 23186, "x": null, "y": 0.5683333333333334}, {"type": "position", "time": 23237, "x": null, "y": 0.5683333333333334}, {"type": "position", "time": 23286, "x": null, "y": 0.5683333333333334}, {"type": "position", "time": 23337, "x": null, "y": 0.5683333333333334}, {"type": "position", "time": 23388, "x": null, "y": 0.5683333333333334}, {"type": "position", "time": 23438, "x": null, "y": 0.5683333333333334}, {"type": "position", "time": 23488, "x": null, "y": 0.5683333333333334}, {"type": "position", "time": 23538, "x": null, "y": 0.5683333333333334}, {"type": "position", "time": 23589, "x": null, "y": 0.5683333333333334}, {"type": "position", "time": 23639, "x": null, "y": 0.5683333333333334}, {"type": "position", "time": 23689, "x": null, "y": 0.5683333333333334}, {"type": "position", "time": 23739, "x": null, "y": 0.5683333333333334}, {"type": "position", "time": 23790, "x": null, "y": 0.5683333333333334}, {"type": "position", "time": 23840, "x": null, "y": 0.5683333333333334}, {"type": "position", "time": 23890, "x": null, "y": 0.5683333333333334}, {"type": "position", "time": 23941, "x": null, "y": 0.5683333333333334}, {"type": "position", "time": 23992, "x": null, "y": 0.5683333333333334}, {"type": "position", "time": 24042, "x": null, "y": 0.5683333333333334}, {"type": "position", "time": 24092, "x": null, "y": 0.5683333333333334}, {"type": "position", "time": 24142, "x": null, "y": 0.5683333333333334}, {"type": "position", "time": 24192, "x": null, "y": 0.5683333333333334}, {"type": "position", "time": 24243, "x": null, "y": 0.5683333333333334}, {"type": "position", "time": 24294, "x": null, "y": 0.5683333333333334}, {"type": "position", "time": 24345, "x": null, "y": 0.5683333333333334}, {"type": "position", "time": 24396, "x": null, "y": 0.5683333333333334}, {"type": "position", "time": 24447, "x": null, "y": 0.5683333333333334}, {"type": "position", "time": 24498, "x": null, "y": 0.5683333333333334}, {"type": "position", "time": 24549, "x": null, "y": 0.5683333333333334}, {"type": "position", "time": 24599, "x": null, "y": 0.5683333333333334}, {"type": "position", "time": 24651, "x": null, "y": 0.5683333333333334}, {"type": "position", "time": 24702, "x": null, "y": 0.5683333333333334}, {"type": "position", "time": 24753, "x": null, "y": 0.5683333333333334}, {"type": "position", "time": 24804, "x": null, "y": 0.5683333333333334}, {"type": "position", "time": 24855, "x": null, "y": 0.5683333333333334}, {"type": "position", "time": 24906, "x": null, "y": 0.5683333333333334}, {"type": "position", "time": 24957, "x": null, "y": 0.5683333333333334}, {"type": "position", "time": 25008, "x": null, "y": 0.5683333333333334}, {"type": "position", "time": 25058, "x": null, "y": 0.5683333333333334}, {"type": "position", "time": 25109, "x": null, "y": 0.5683333333333334}, {"type": "position", "time": 25159, "x": null, "y": 0.5683333333333334}, {"type": "position", "time": 25209, "x": null, "y": 0.5683333333333334}, {"type": "position", "time": 25260, "x": null, "y": 0.5683333333333334}, {"type": "position", "time": 25310, "x": null, "y": 0.5683333333333334}, {"type": "position", "time": 25362, "x": null, "y": 0.5683333333333334}, {"type": "position", "time": 25412, "x": null, "y": 0.5683333333333334}, {"type": "position", "time": 25463, "x": null, "y": 0.5683333333333334}, {"type": "position", "time": 25514, "x": null, "y": 0.5683333333333334}, {"type": "position", "time": 25565, "x": null, "y": 0.5683333333333334}, {"type": "position", "time": 25615, "x": null, "y": 0.5683333333333334}, {"type": "position", "time": 25666, "x": null, "y": 0.5683333333333334}, {"type": "position", "time": 25717, "x": null, "y": 0.5683333333333334}, {"type": "position", "time": 25768, "x": null, "y": 0.5683333333333334}, {"type": "position", "time": 25819, "x": null, "y": 0.5683333333333334}, {"type": "position", "time": 25870, "x": null, "y": 0.5683333333333334}, {"type": "position", "time": 25922, "x": null, "y": 0.5683333333333334}, {"type": "position", "time": 25973, "x": null, "y": 0.5683333333333334}, {"type": "position", "time": 26023, "x": null, "y": 0.5683333333333334}, {"type": "position", "time": 26073, "x": null, "y": 0.5683333333333334}, {"type": "position", "time": 26124, "x": null, "y": 0.5683333333333334}, {"type": "position", "time": 26174, "x": null, "y": 0.5683333333333334}, {"type": "position", "time": 26225, "x": null, "y": 0.5683333333333334}, {"type": "position", "time": 26276, "x": null, "y": 0.5683333333333334}, {"type": "position", "time": 26326, "x": null, "y": 0.5683333333333334}, {"type": "position", "time": 26377, "x": null, "y": 0.5683333333333334}, {"type": "position", "time": 26428, "x": null, "y": 0.5683333333333334}, {"type": "position", "time": 26478, "x": null, "y": 0.5683333333333334}, {"type": "position", "time": 26529, "x": null, "y": 0.5683333333333334}, {"type": "position", "time": 26579, "x": null, "y": 0.5683333333333334}, {"type": "position", "time": 26630, "x": null, "y": 0.5683333333333334}, {"type": "position", "time": 26680, "x": null, "y": 0.5683333333333334}, {"type": "position", "time": 26731, "x": null, "y": 0.5683333333333334}, {"type": "position", "time": 26781, "x": null, "y": 0.5683333333333334}, {"type": "position", "time": 26832, "x": null, "y": 0.5683333333333334}, {"type": "position", "time": 26883, "x": null, "y": 0.5683333333333334}, {"type": "position", "time": 26934, "x": null, "y": 0.5683333333333334}, {"type": "position", "time": 26984, "x": null, "y": 0.5683333333333334}, {"type": "position", "time": 27036, "x": null, "y": 0.5683333333333334}, {"type": "position", "time": 27087, "x": null, "y": 0.5683333333333334}, {"type": "position", "time": 27138, "x": null, "y": 0.5683333333333334}, {"type": "position", "time": 27189, "x": null, "y": 0.5683333333333334}, {"type": "position", "time": 27239, "x": null, "y": 0.5683333333333334}, {"type": "position", "time": 27290, "x": null, "y": 0.5683333333333334}, {"type": "position", "time": 27342, "x": null, "y": 0.5683333333333334}, {"type": "position", "time": 27392, "x": null, "y": 0.5683333333333334}, {"type": "position", "time": 27443, "x": null, "y": 0.5683333333333334}, {"type": "position", "time": 27493, "x": null, "y": 0.5683333333333334}, {"type": "position", "time": 27544, "x": null, "y": 0.5683333333333334}, {"type": "position", "time": 27594, "x": null, "y": 0.5683333333333334}, {"type": "position", "time": 27644, "x": null, "y": 0.5683333333333334}, {"type": "position", "time": 27695, "x": null, "y": 0.5683333333333334}, {"type": "position", "time": 27746, "x": null, "y": 0.5683333333333334}, {"type": "position", "time": 27797, "x": null, "y": 0.5683333333333334}, {"type": "position", "time": 27848, "x": null, "y": 0.5683333333333334}, {"type": "position", "time": 27899, "x": null, "y": 0.5683333333333334}, {"type": "position", "time": 27949, "x": null, "y": 0.5683333333333334}, {"type": "position", "time": 28000, "x": null, "y": 0.5683333333333334}, {"type": "position", "time": 28051, "x": null, "y": 0.5683333333333334}, {"type": "position", "time": 28102, "x": null, "y": 0.5683333333333334}, {"type": "position", "time": 28153, "x": null, "y": 0.5683333333333334}, {"type": "position", "time": 28204, "x": null, "y": 0.5683333333333334}, {"type": "position", "time": 28254, "x": null, "y": 0.5683333333333334}, {"type": "position", "time": 28306, "x": null, "y": 0.5683333333333334}, {"type": "position", "time": 28356, "x": null, "y": 0.5683333333333334}, {"type": "position", "time": 28406, "x": null, "y": 0.5683333333333334}, {"type": "position", "time": 28457, "x": null, "y": 0.5683333333333334}, {"type": "position", "time": 28508, "x": null, "y": 0.5683333333333334}, {"type": "position", "time": 28559, "x": null, "y": 0.5683333333333334}, {"type": "position", "time": 28609, "x": null, "y": 0.5683333333333334}, {"type": "position", "time": 28660, "x": null, "y": 0.5683333333333334}, {"type": "position", "time": 28710, "x": null, "y": 0.5683333333333334}, {"type": "position", "time": 28761, "x": null, "y": 0.5683333333333334}, {"type": "position", "time": 28812, "x": null, "y": 0.5683333333333334}, {"type": "position", "time": 28864, "x": null, "y": 0.5683333333333334}, {"type": "position", "time": 28915, "x": null, "y": 0.5683333333333334}, {"type": "position", "time": 28965, "x": null, "y": 0.5683333333333334}, {"type": "position", "time": 29016, "x": null, "y": 0.5683333333333334}, {"type": "position", "time": 29067, "x": null, "y": 0.5683333333333334}, {"type": "position", "time": 29117, "x": null, "y": 0.5683333333333334}, {"type": "position", "time": 29169, "x": null, "y": 0.5683333333333334}, {"type": "position", "time": 29219, "x": null, "y": 0.5683333333333334}, {"type": "position", "time": 29269, "x": null, "y": 0.5683333333333334}, {"type": "position", "time": 29320, "x": null, "y": 0.5683333333333334}, {"type": "position", "time": 29372, "x": null, "y": 0.5683333333333334}, {"type": "position", "time": 29422, "x": null, "y": 0.5683333333333334}, {"type": "position", "time": 29473, "x": null, "y": 0.5683333333333334}, {"type": "position", "time": 29523, "x": null, "y": 0.5683333333333334}, {"type": "position", "time": 29573, "x": null, "y": 0.5683333333333334}, {"type": "position", "time": 29623, "x": null, "y": 0.5683333333333334}, {"type": "position", "time": 29673, "x": null, "y": 0.5683333333333334}, {"type": "position", "time": 29724, "x": null, "y": 0.5683333333333334}, {"type": "position", "time": 29774, "x": null, "y": 0.5683333333333334}, {"type": "position", "time": 29825, "x": null, "y": 0.5683333333333334}, {"type": "position", "time": 29876, "x": null, "y": 0.5683333333333334}, {"type": "position", "time": 29926, "x": null, "y": 0.5683333333333334}, {"type": "position", "time": 29977, "x": null, "y": 0.5683333333333334}, {"type": "position", "time": 30027, "x": null, "y": 0.5683333333333334}, {"type": "position", "time": 30077, "x": null, "y": 0.5683333333333334}, {"type": "position", "time": 30128, "x": null, "y": 0.5683333333333334}, {"type": "position", "time": 30179, "x": null, "y": 0.5683333333333334}, {"type": "position", "time": 30230, "x": null, "y": 0.5683333333333334}, {"type": "position", "time": 30281, "x": null, "y": 0.5683333333333334}, {"type": "position", "time": 30331, "x": null, "y": 0.5683333333333334}, {"type": "position", "time": 30382, "x": null, "y": 0.5683333333333334}, {"type": "position", "time": 30432, "x": null, "y": 0.5683333333333334}, {"type": "position", "time": 30483, "x": null, "y": 0.5683333333333334}, {"type": "position", "time": 30533, "x": null, "y": 0.5683333333333334}, {"type": "position", "time": 30584, "x": null, "y": 0.5683333333333334}, {"type": "position", "time": 30635, "x": null, "y": 0.5683333333333334}, {"type": "position", "time": 30685, "x": null, "y": 0.5683333333333334}, {"type": "position", "time": 30736, "x": null, "y": 0.5683333333333334}, {"type": "position", "time": 30786, "x": null, "y": 0.565}, {"type": "position", "time": 30837, "x": null, "y": 0.5633333333333334}, {"type": "position", "time": 30887, "x": null, "y": 0.5633333333333334}, {"type": "position", "time": 30937, "x": null, "y": 0.5633333333333334}, {"type": "position", "time": 30990, "x": null, "y": 0.57}, {"type": "position", "time": 31042, "x": null, "y": 0.5633333333333334}, {"type": "position", "time": 31094, "x": null, "y": 0.55}, {"type": "position", "time": 31146, "x": null, "y": 0.545}, {"type": "position", "time": 31196, "x": null, "y": 0.5433333333333333}, {"type": "position", "time": 31246, "x": null, "y": 0.5433333333333333}, {"type": "position", "time": 31296, "x": null, "y": 0.5433333333333333}, {"type": "position", "time": 31350, "x": null, "y": 0.5416666666666666}, {"type": "position", "time": 31401, "x": null, "y": 0.5366666666666666}, {"type": "position", "time": 31451, "x": null, "y": 0.525}, {"type": "position", "time": 31502, "x": null, "y": 0.5216666666666666}, {"type": "position", "time": 31553, "x": null, "y": 0.5216666666666666}, {"type": "position", "time": 31603, "x": null, "y": 0.5216666666666666}, {"type": "position", "time": 31654, "x": null, "y": 0.5216666666666666}, {"type": "position", "time": 31705, "x": null, "y": 0.5216666666666666}, {"type": "position", "time": 31756, "x": null, "y": 0.5216666666666666}, {"type": "position", "time": 31806, "x": null, "y": 0.5216666666666666}, {"type": "position", "time": 31856, "x": null, "y": 0.5216666666666666}, {"type": "position", "time": 31907, "x": null, "y": 0.5216666666666666}, {"type": "position", "time": 31958, "x": null, "y": 0.5216666666666666}, {"type": "position", "time": 32008, "x": null, "y": 0.5216666666666666}, {"type": "position", "time": 32058, "x": null, "y": 0.5216666666666666}, {"type": "position", "time": 32108, "x": null, "y": 0.525}, {"type": "position", "time": 32164, "x": null, "y": 0.5266666666666666}, {"type": "position", "time": 32214, "x": null, "y": 0.5283333333333333}, {"type": "position", "time": 32265, "x": null, "y": 0.5283333333333333}, {"type": "position", "time": 32315, "x": null, "y": 0.5283333333333333}, {"type": "position", "time": 32367, "x": null, "y": 0.5283333333333333}, {"type": "position", "time": 32417, "x": null, "y": 0.5283333333333333}, {"type": "position", "time": 32468, "x": null, "y": 0.5283333333333333}, {"type": "position", "time": 32518, "x": null, "y": 0.5283333333333333}, {"type": "position", "time": 32569, "x": null, "y": 0.5283333333333333}, {"type": "position", "time": 32619, "x": null, "y": 0.5283333333333333}, {"type": "position", "time": 32669, "x": null, "y": 0.5283333333333333}, {"type": "position", "time": 32720, "x": null, "y": 0.5283333333333333}, {"type": "position", "time": 32770, "x": null, "y": 0.5283333333333333}, {"type": "position", "time": 32821, "x": null, "y": 0.5283333333333333}, {"type": "position", "time": 32871, "x": null, "y": 0.5283333333333333}, {"type": "position", "time": 32922, "x": null, "y": 0.5283333333333333}, {"type": "position", "time": 32972, "x": null, "y": 0.5283333333333333}, {"type": "position", "time": 33023, "x": null, "y": 0.5283333333333333}, {"type": "position", "time": 33072, "x": null, "y": 0.5283333333333333}, {"type": "position", "time": 33122, "x": null, "y": 0.5283333333333333}, {"type": "position", "time": 33172, "x": null, "y": 0.5283333333333333}, {"type": "position", "time": 33223, "x": null, "y": 0.5283333333333333}, {"type": "position", "time": 33273, "x": null, "y": 0.5283333333333333}, {"type": "position", "time": 33324, "x": null, "y": 0.5283333333333333}, {"type": "slider", "time": 33381, "value": 0.94}, {"type": "position", "time": 33382, "x": null, "y": 0.5283333333333333}, {"type": "position", "time": 33432, "x": null, "y": 0.5283333333333333}, {"type": "position", "time": 33482, "x": null, "y": 0.5283333333333333}, {"type": "position", "time": 33533, "x": null, "y": 0.5283333333333333}, {"type": "position", "time": 33584, "x": null, "y": 0.5283333333333333}, {"type": "position", "time": 33634, "x": null, "y": 0.5283333333333333}, {"type": "position", "time": 33684, "x": null, "y": 0.5283333333333333}, {"type": "position", "time": 33735, "x": null, "y": 0.5283333333333333}, {"type": "position", "time": 33786, "x": null, "y": 0.5283333333333333}, {"type": "position", "time": 33836, "x": null, "y": 0.5283333333333333}, {"type": "position", "time": 33886, "x": null, "y": 0.5283333333333333}, {"type": "position", "time": 33937, "x": null, "y": 0.5283333333333333}, {"type": "position", "time": 33988, "x": null, "y": 0.5283333333333333}, {"type": "position", "time": 34038, "x": null, "y": 0.5283333333333333}, {"type": "position", "time": 34088, "x": null, "y": 0.5283333333333333}, {"type": "position", "time": 34141, "x": null, "y": 0.5283333333333333}, {"type": "position", "time": 34191, "x": null, "y": 0.5283333333333333}, {"type": "position", "time": 34243, "x": null, "y": 0.5283333333333333}, {"type": "slider", "time": 34265, "value": 0.95}, {"type": "slider", "time": 34280, "value": 0.96}, {"type": "position", "time": 34293, "x": null, "y": 0.5283333333333333}, {"type": "slider", "time": 34296, "value": 0.97}, {"type": "slider", "time": 34311, "value": 0.99}, {"type": "slider", "time": 34329, "value": 1}, {"type": "position", "time": 34343, "x": null, "y": 0.5283333333333333}, {"type": "position", "time": 34394, "x": null, "y": 0.5283333333333333}, {"type": "position", "time": 34445, "x": null, "y": 0.5283333333333333}, {"type": "position", "time": 34496, "x": null, "y": 0.5283333333333333}, {"type": "position", "time": 34547, "x": null, "y": 0.5283333333333333}, {"type": "position", "time": 34598, "x": null, "y": 0.5283333333333333}, {"type": "position", "time": 34649, "x": null, "y": 0.5283333333333333}, {"type": "position", "time": 34700, "x": null, "y": 0.525}, {"type": "position", "time": 34751, "x": null, "y": 0.5233333333333333}, {"type": "position", "time": 34802, "x": null, "y": 0.5233333333333333}, {"type": "position", "time": 34853, "x": null, "y": 0.5233333333333333}, {"type": "position", "time": 34903, "x": null, "y": 0.5233333333333333}, {"type": "position", "time": 34953, "x": null, "y": 0.5233333333333333}, {"type": "position", "time": 35004, "x": null, "y": 0.5233333333333333}, {"type": "position", "time": 35055, "x": null, "y": 0.5233333333333333}, {"type": "position", "time": 35109, "x": null, "y": 0.5433333333333333}, {"type": "position", "time": 35162, "x": null, "y": 0.6216666666666667}, {"type": "position", "time": 35212, "x": null, "y": 0.64}, {"type": "position", "time": 35262, "x": null, "y": 0.64}, {"type": "position", "time": 35313, "x": null, "y": 0.6483333333333333}, {"type": "position", "time": 35363, "x": null, "y": 0.64}, {"type": "position", "time": 35416, "x": null, "y": 0.63}, {"type": "position", "time": 35466, "x": null, "y": 0.625}, {"type": "position", "time": 35517, "x": null, "y": 0.625}, {"type": "position", "time": 35567, "x": null, "y": 0.625}, {"type": "position", "time": 35618, "x": null, "y": 0.625}, {"type": "click", "time": 35665, "x": null, "y": 0.625}, {"type": "position", "time": 35670, "x": null, "y": 0.625}, {"type": "position", "time": 35720, "x": null, "y": 0.625}, {"type": "position", "time": 35771, "x": null, "y": 0.625}, {"type": "position", "time": 35822, "x": null, "y": 0.625}, {"type": "position", "time": 35872, "x": null, "y": 0.625}, {"type": "position", "time": 35923, "x": null, "y": 0.625}, {"type": "position", "time": 35974, "x": null, "y": 0.625}, {"type": "position", "time": 36026, "x": null, "y": 0.625}, {"type": "position", "time": 36076, "x": null, "y": 0.625}, {"type": "position", "time": 36127, "x": null, "y": 0.625}, {"type": "position", "time": 36180, "x": null, "y": 0.6216666666666667}, {"type": "position", "time": 36230, "x": null, "y": 0.625}, {"type": "position", "time": 36282, "x": null, "y": 0.63}, {"type": "position", "time": 36332, "x": null, "y": 0.6333333333333333}, {"type": "position", "time": 36382, "x": null, "y": 0.635}, {"type": "position", "time": 36436, "x": null, "y": 0.6366666666666667}, {"type": "position", "time": 36488, "x": null, "y": 0.6383333333333333}, {"type": "position", "time": 36538, "x": null, "y": 0.6383333333333333}, {"type": "position", "time": 36588, "x": null, "y": 0.64}, {"type": "position", "time": 36639, "x": null, "y": 0.64}, {"type": "position", "time": 36690, "x": null, "y": 0.64}, {"type": "position", "time": 36741, "x": null, "y": 0.64}, {"type": "position", "time": 36791, "x": null, "y": 0.64}, {"type": "position", "time": 36841, "x": null, "y": 0.64}, {"type": "position", "time": 36892, "x": null, "y": 0.64}, {"type": "position", "time": 36942, "x": null, "y": 0.6466666666666666}, {"type": "position", "time": 36993, "x": null, "y": 0.6466666666666666}, {"type": "position", "time": 37044, "x": null, "y": 0.6466666666666666}, {"type": "position", "time": 37094, "x": null, "y": 0.6466666666666666}, {"type": "position", "time": 37144, "x": null, "y": 0.6466666666666666}, {"type": "position", "time": 37195, "x": null, "y": 0.6466666666666666}, {"type": "position", "time": 37246, "x": null, "y": 0.6466666666666666}, {"type": "position", "time": 37296, "x": null, "y": 0.6666666666666666}, {"type": "position", "time": 37347, "x": null, "y": 0.6666666666666666}, {"type": "position", "time": 37399, "x": null, "y": 0.6666666666666666}, {"type": "position", "time": 37449, "x": null, "y": 0.6666666666666666}, {"type": "position", "time": 37501, "x": null, "y": 0.6733333333333333}, {"type": "position", "time": 37551, "x": null, "y": 0.6733333333333333}, {"type": "position", "time": 37602, "x": null, "y": 0.6733333333333333}, {"type": "position", "time": 37653, "x": null, "y": 0.4766666666666667}, {"type": "position", "time": 37703, "x": null, "y": 0.4766666666666667}, {"type": "position", "time": 37754, "x": null, "y": 0.4766666666666667}, {"type": "position", "time": 37804, "x": null, "y": 0.4766666666666667}, {"type": "position", "time": 37855, "x": null, "y": 0.4766666666666667}, {"type": "position", "time": 37905, "x": null, "y": 0.4766666666666667}, {"type": "position", "time": 37955, "x": null, "y": 0.4766666666666667}, {"type": "position", "time": 38006, "x": null, "y": 0.4766666666666667}, {"type": "position", "time": 38056, "x": null, "y": 0.4766666666666667}, {"type": "position", "time": 38107, "x": null, "y": 0.4766666666666667}, {"type": "position", "time": 38159, "x": null, "y": 0.4766666666666667}, {"type": "position", "time": 38209, "x": null, "y": 0.5133333333333333}, {"type": "position", "time": 38260, "x": null, "y": 0.5133333333333333}, {"type": "position", "time": 38311, "x": null, "y": 0.5133333333333333}, {"type": "position", "time": 38362, "x": null, "y": 0.5133333333333333}, {"type": "position", "time": 38413, "x": null, "y": 0.5133333333333333}, {"type": "position", "time": 38464, "x": null, "y": 0.5133333333333333}, {"type": "position", "time": 38515, "x": null, "y": 0.52}, {"type": "position", "time": 38566, "x": null, "y": 0.52}, {"type": "position", "time": 38617, "x": null, "y": 0.52}, {"type": "position", "time": 38669, "x": null, "y": 0.52}, {"type": "position", "time": 38720, "x": null, "y": 0.52}, {"type": "position", "time": 38770, "x": null, "y": 0.52}, {"type": "position", "time": 38820, "x": null, "y": 0.52}, {"type": "position", "time": 38871, "x": null, "y": 0.5266666666666666}, {"type": "position", "time": 38921, "x": null, "y": 0.5266666666666666}, {"type": "position", "time": 38972, "x": null, "y": 0.5266666666666666}, {"type": "position", "time": 39022, "x": null, "y": 0.5266666666666666}, {"type": "position", "time": 39073, "x": null, "y": 0.5266666666666666}, {"type": "position", "time": 39123, "x": null, "y": 0.5266666666666666}, {"type": "position", "time": 39173, "x": null, "y": 0.5266666666666666}, {"type": "position", "time": 39224, "x": null, "y": 0.5266666666666666}, {"type": "position", "time": 39274, "x": null, "y": 0.5266666666666666}, {"type": "position", "time": 39325, "x": null, "y": 0.5266666666666666}, {"type": "position", "time": 39377, "x": null, "y": 0.5266666666666666}, {"type": "position", "time": 39427, "x": null, "y": 0.5266666666666666}, {"type": "position", "time": 39478, "x": null, "y": 0.5266666666666666}, {"type": "position", "time": 39528, "x": null, "y": 0.5266666666666666}, {"type": "position", "time": 39579, "x": null, "y": 0.5266666666666666}, {"type": "position", "time": 39629, "x": null, "y": 0.5266666666666666}, {"type": "position", "time": 39680, "x": null, "y": 0.5333333333333333}, {"type": "position", "time": 39731, "x": null, "y": 0.5333333333333333}, {"type": "position", "time": 39782, "x": null, "y": 0.5333333333333333}, {"type": "position", "time": 39833, "x": null, "y": 0.5333333333333333}, {"type": "position", "time": 39884, "x": null, "y": 0.5333333333333333}, {"type": "position", "time": 39935, "x": null, "y": 0.5433333333333333}, {"type": "position", "time": 39985, "x": null, "y": 0.5483333333333333}, {"type": "position", "time": 40035, "x": null, "y": 0.5566666666666666}, {"type": "position", "time": 40087, "x": null, "y": 0.5666666666666667}, {"type": "position", "time": 40141, "x": null, "y": 0.5783333333333334}, {"type": "position", "time": 40191, "x": null, "y": 0.5783333333333334}, {"type": "position", "time": 40241, "x": null, "y": 0.5783333333333334}, {"type": "position", "time": 40292, "x": null, "y": 0.5783333333333334}, {"type": "position", "time": 40343, "x": null, "y": 0.5783333333333334}, {"type": "position", "time": 40394, "x": null, "y": 0.5783333333333334}, {"type": "position", "time": 40444, "x": null, "y": 0.5783333333333334}, {"type": "position", "time": 40494, "x": null, "y": 0.5783333333333334}, {"type": "position", "time": 40545, "x": null, "y": 0.5783333333333334}, {"type": "position", "time": 40596, "x": null, "y": 0.5783333333333334}, {"type": "position", "time": 40647, "x": null, "y": 0.5783333333333334}, {"type": "position", "time": 40698, "x": null, "y": 0.5783333333333334}, {"type": "position", "time": 40749, "x": null, "y": 0.5783333333333334}, {"type": "position", "time": 40800, "x": null, "y": 0.5783333333333334}, {"type": "position", "time": 40851, "x": null, "y": 0.5783333333333334}, {"type": "position", "time": 40901, "x": null, "y": 0.5783333333333334}, {"type": "position", "time": 40952, "x": null, "y": 0.5783333333333334}, {"type": "position", "time": 41003, "x": null, "y": 0.5783333333333334}, {"type": "position", "time": 41053, "x": null, "y": 0.5783333333333334}, {"type": "position", "time": 41105, "x": null, "y": 0.5783333333333334}, {"type": "position", "time": 41155, "x": null, "y": 0.5783333333333334}, {"type": "position", "time": 41206, "x": null, "y": 0.5783333333333334}, {"type": "position", "time": 41256, "x": null, "y": 0.5783333333333334}, {"type": "position", "time": 41307, "x": null, "y": 0.5783333333333334}, {"type": "position", "time": 41358, "x": null, "y": 0.5783333333333334}, {"type": "position", "time": 41409, "x": null, "y": 0.5783333333333334}, {"type": "position", "time": 41460, "x": null, "y": 0.5783333333333334}, {"type": "position", "time": 41510, "x": null, "y": 0.5783333333333334}, {"type": "position", "time": 41561, "x": null, "y": 0.5783333333333334}, {"type": "position", "time": 41611, "x": null, "y": 0.5783333333333334}, {"type": "position", "time": 41662, "x": null, "y": 0.5783333333333334}, {"type": "position", "time": 41712, "x": null, "y": 0.5783333333333334}, {"type": "position", "time": 41763, "x": null, "y": 0.5783333333333334}, {"type": "position", "time": 41813, "x": null, "y": 0.5783333333333334}, {"type": "position", "time": 41865, "x": null, "y": 0.5783333333333334}, {"type": "position", "time": 41916, "x": null, "y": 0.5783333333333334}, {"type": "position", "time": 41967, "x": null, "y": 0.5783333333333334}, {"type": "position", "time": 42018, "x": null, "y": 0.5783333333333334}, {"type": "position", "time": 42068, "x": null, "y": 0.585}, {"type": "position", "time": 42119, "x": null, "y": 0.585}, {"type": "position", "time": 42169, "x": null, "y": 0.585}, {"type": "position", "time": 42220, "x": null, "y": 0.585}, {"type": "position", "time": 42270, "x": null, "y": 0.585}, {"type": "position", "time": 42321, "x": null, "y": 0.585}, {"type": "position", "time": 42372, "x": null, "y": 0.585}, {"type": "position", "time": 42423, "x": null, "y": 0.585}, {"type": "position", "time": 42474, "x": null, "y": 0.585}, {"type": "position", "time": 42524, "x": null, "y": 0.585}, {"type": "position", "time": 42574, "x": null, "y": 0.585}, {"type": "position", "time": 42625, "x": null, "y": 0.585}, {"type": "position", "time": 42676, "x": null, "y": 0.585}, {"type": "position", "time": 42726, "x": null, "y": 0.585}, {"type": "position", "time": 42777, "x": null, "y": 0.585}, {"type": "position", "time": 42827, "x": null, "y": 0.585}, {"type": "position", "time": 42878, "x": null, "y": 0.585}, {"type": "position", "time": 42928, "x": null, "y": 0.585}, {"type": "position", "time": 42979, "x": null, "y": 0.585}, {"type": "position", "time": 43030, "x": null, "y": 0.585}, {"type": "position", "time": 43081, "x": null, "y": 0.585}, {"type": "position", "time": 43132, "x": null, "y": 0.585}, {"type": "position", "time": 43182, "x": null, "y": 0.585}, {"type": "position", "time": 43233, "x": null, "y": 0.585}, {"type": "position", "time": 43284, "x": null, "y": 0.585}, {"type": "position", "time": 43334, "x": null, "y": 0.585}, {"type": "position", "time": 43384, "x": null, "y": 0.585}, {"type": "position", "time": 43435, "x": null, "y": 0.585}, {"type": "position", "time": 43485, "x": null, "y": 0.585}, {"type": "position", "time": 43535, "x": null, "y": 0.585}, {"type": "position", "time": 43585, "x": null, "y": 0.585}, {"type": "position", "time": 43635, "x": null, "y": 0.585}, {"type": "position", "time": 43685, "x": null, "y": 0.585}, {"type": "position", "time": 43736, "x": null, "y": 0.585}, {"type": "position", "time": 43786, "x": null, "y": 0.585}, {"type": "position", "time": 43836, "x": null, "y": 0.585}, {"type": "position", "time": 43887, "x": null, "y": 0.5916666666666667}, {"type": "position", "time": 43938, "x": null, "y": 0.5916666666666667}, {"type": "position", "time": 43989, "x": null, "y": 0.5916666666666667}, {"type": "position", "time": 44039, "x": null, "y": 0.5916666666666667}, {"type": "position", "time": 44089, "x": null, "y": 0.5916666666666667}, {"type": "position", "time": 44140, "x": null, "y": 0.5916666666666667}, {"type": "position", "time": 44191, "x": null, "y": 0.5916666666666667}, {"type": "position", "time": 44242, "x": null, "y": 0.5916666666666667}, {"type": "position", "time": 44292, "x": null, "y": 0.5916666666666667}, {"type": "position", "time": 44344, "x": null, "y": 0.5916666666666667}, {"type": "position", "time": 44395, "x": null, "y": 0.5916666666666667}, {"type": "position", "time": 44445, "x": null, "y": 0.5916666666666667}, {"type": "position", "time": 44497, "x": null, "y": 0.5916666666666667}, {"type": "position", "time": 44547, "x": null, "y": 0.5916666666666667}, {"type": "position", "time": 44598, "x": null, "y": 0.5916666666666667}, {"type": "position", "time": 44649, "x": null, "y": 0.5916666666666667}, {"type": "position", "time": 44699, "x": null, "y": 0.5916666666666667}, {"type": "position", "time": 44749, "x": null, "y": 0.5916666666666667}, {"type": "position", "time": 44800, "x": null, "y": 0.5916666666666667}, {"type": "position", "time": 44850, "x": null, "y": 0.5916666666666667}, {"type": "position", "time": 44900, "x": null, "y": 0.5916666666666667}, {"type": "position", "time": 44952, "x": null, "y": 0.5916666666666667}, {"type": "position", "time": 45002, "x": null, "y": 0.5916666666666667}, {"type": "position", "time": 45053, "x": null, "y": 0.5916666666666667}, {"type": "position", "time": 45104, "x": null, "y": 0.5916666666666667}, {"type": "position", "time": 45155, "x": null, "y": 0.5983333333333334}, {"type": "position", "time": 45206, "x": null, "y": 0.5983333333333334}, {"type": "position", "time": 45256, "x": null, "y": 0.5983333333333334}, {"type": "position", "time": 45307, "x": null, "y": 0.5983333333333334}, {"type": "position", "time": 45358, "x": null, "y": 0.5983333333333334}, {"type": "position", "time": 45409, "x": null, "y": 0.5983333333333334}, {"type": "position", "time": 45461, "x": null, "y": 0.5983333333333334}, {"type": "position", "time": 45512, "x": null, "y": 0.5983333333333334}, {"type": "position", "time": 45562, "x": null, "y": 0.5983333333333334}, {"type": "position", "time": 45613, "x": null, "y": 0.5983333333333334}, {"type": "position", "time": 45664, "x": null, "y": 0.5983333333333334}, {"type": "position", "time": 45714, "x": null, "y": 0.5983333333333334}, {"type": "position", "time": 45764, "x": null, "y": 0.5983333333333334}, {"type": "position", "time": 45815, "x": null, "y": 0.5983333333333334}, {"type": "position", "time": 45866, "x": null, "y": 0.5983333333333334}, {"type": "position", "time": 45917, "x": null, "y": 0.5983333333333334}, {"type": "position", "time": 45968, "x": null, "y": 0.5983333333333334}, {"type": "position", "time": 46018, "x": null, "y": 0.5866666666666667}, {"type": "position", "time": 46068, "x": null, "y": 0.5533333333333333}, {"type": "position", "time": 46119, "x": null, "y": 0.535}, {"type": "position", "time": 46170, "x": null, "y": 0.525}, {"type": "position", "time": 46220, "x": null, "y": 0.52}, {"type": "position", "time": 46271, "x": null, "y": 0.515}, {"type": "position", "time": 46324, "x": null, "y": 0.5116666666666667}, {"type": "position", "time": 46374, "x": null, "y": 0.5083333333333333}, {"type": "position", "time": 46425, "x": null, "y": 0.505}, {"type": "position", "time": 46477, "x": null, "y": 0.5033333333333333}, {"type": "position", "time": 46528, "x": null, "y": 0.5033333333333333}, {"type": "position", "time": 46579, "x": null, "y": 0.5033333333333333}, {"type": "position", "time": 46630, "x": null, "y": 0.5033333333333333}, {"type": "position", "time": 46680, "x": null, "y": 0.5033333333333333}, {"type": "position", "time": 46731, "x": null, "y": 0.5033333333333333}, {"type": "position", "time": 46782, "x": null, "y": 0.5033333333333333}, {"type": "position", "time": 46833, "x": null, "y": 0.5033333333333333}, {"type": "position", "time": 46884, "x": null, "y": 0.5033333333333333}, {"type": "position", "time": 46934, "x": null, "y": 0.5033333333333333}, {"type": "position", "time": 46984, "x": null, "y": 0.5033333333333333}, {"type": "position", "time": 47034, "x": null, "y": 0.5033333333333333}, {"type": "position", "time": 47085, "x": null, "y": 0.5033333333333333}, {"type": "position", "time": 47135, "x": null, "y": 0.5033333333333333}, {"type": "position", "time": 47185, "x": null, "y": 0.5033333333333333}, {"type": "position", "time": 47237, "x": null, "y": 0.5033333333333333}, {"type": "position", "time": 47288, "x": null, "y": 0.5033333333333333}, {"type": "position", "time": 47339, "x": null, "y": 0.5033333333333333}, {"type": "position", "time": 47389, "x": null, "y": 0.5033333333333333}, {"type": "position", "time": 47440, "x": null, "y": 0.5033333333333333}, {"type": "position", "time": 47491, "x": null, "y": 0.5033333333333333}, {"type": "position", "time": 47542, "x": null, "y": 0.5033333333333333}, {"type": "position", "time": 47593, "x": null, "y": 0.5033333333333333}, {"type": "position", "time": 47645, "x": null, "y": 0.5033333333333333}, {"type": "position", "time": 47696, "x": null, "y": 0.5033333333333333}, {"type": "position", "time": 47747, "x": null, "y": 0.5033333333333333}, {"type": "position", "time": 47797, "x": null, "y": 0.5033333333333333}, {"type": "position", "time": 47848, "x": null, "y": 0.5033333333333333}, {"type": "position", "time": 47899, "x": null, "y": 0.5033333333333333}, {"type": "position", "time": 47949, "x": null, "y": 0.5033333333333333}, {"type": "position", "time": 48000, "x": null, "y": 0.5033333333333333}, {"type": "position", "time": 48050, "x": null, "y": 0.5033333333333333}, {"type": "position", "time": 48100, "x": null, "y": 0.5033333333333333}, {"type": "position", "time": 48150, "x": null, "y": 0.5033333333333333}, {"type": "position", "time": 48202, "x": null, "y": 0.5033333333333333}, {"type": "position", "time": 48252, "x": null, "y": 0.5033333333333333}, {"type": "position", "time": 48303, "x": null, "y": 0.5033333333333333}, {"type": "position", "time": 48354, "x": null, "y": 0.5033333333333333}, {"type": "position", "time": 48405, "x": null, "y": 0.5033333333333333}, {"type": "position", "time": 48456, "x": null, "y": 0.5033333333333333}, {"type": "position", "time": 48507, "x": null, "y": 0.5033333333333333}, {"type": "position", "time": 48558, "x": null, "y": 0.5033333333333333}, {"type": "position", "time": 48609, "x": null, "y": 0.5033333333333333}, {"type": "position", "time": 48660, "x": null, "y": 0.5033333333333333}, {"type": "position", "time": 48711, "x": null, "y": 0.5033333333333333}, {"type": "position", "time": 48762, "x": null, "y": 0.5033333333333333}, {"type": "position", "time": 48814, "x": null, "y": 0.5033333333333333}, {"type": "position", "time": 48864, "x": null, "y": 0.5033333333333333}, {"type": "position", "time": 48915, "x": null, "y": 0.5033333333333333}, {"type": "position", "time": 48965, "x": null, "y": 0.5033333333333333}, {"type": "position", "time": 49016, "x": null, "y": 0.5033333333333333}, {"type": "position", "time": 49067, "x": null, "y": 0.5033333333333333}, {"type": "position", "time": 49117, "x": null, "y": 0.5033333333333333}, {"type": "position", "time": 49167, "x": null, "y": 0.5033333333333333}, {"type": "position", "time": 49217, "x": null, "y": 0.5033333333333333}, {"type": "position", "time": 49267, "x": null, "y": 0.5033333333333333}, {"type": "position", "time": 49317, "x": null, "y": 0.5033333333333333}, {"type": "position", "time": 49368, "x": null, "y": 0.5033333333333333}, {"type": "position", "time": 49419, "x": null, "y": 0.5033333333333333}, {"type": "position", "time": 49470, "x": null, "y": 0.5033333333333333}, {"type": "click", "time": 49483, "x": null, "y": 0.5033333333333333}, {"type": "position", "time": 49520, "x": null, "y": 0.5033333333333333}, {"type": "position", "time": 49570, "x": null, "y": 0.5033333333333333}, {"type": "position", "time": 49620, "x": null, "y": 0.5033333333333333}, {"type": "position", "time": 49671, "x": null, "y": 0.5033333333333333}, {"type": "position", "time": 49722, "x": null, "y": 0.5033333333333333}, {"type": "position", "time": 49773, "x": null, "y": 0.5033333333333333}, {"type": "position", "time": 49824, "x": null, "y": 0.5033333333333333}, {"type": "position", "time": 49875, "x": null, "y": 0.5033333333333333}, {"type": "position", "time": 49925, "x": null, "y": 0.5033333333333333}, {"type": "position", "time": 49977, "x": null, "y": 0.5033333333333333}, {"type": "position", "time": 50028, "x": null, "y": 0.5033333333333333}, {"type": "position", "time": 50078, "x": null, "y": 0.5033333333333333}, {"type": "position", "time": 50129, "x": null, "y": 0.5033333333333333}, {"type": "position", "time": 50181, "x": null, "y": 0.5033333333333333}, {"type": "position", "time": 50231, "x": null, "y": 0.5033333333333333}, {"type": "position", "time": 50281, "x": null, "y": 0.5333333333333333}, {"type": "position", "time": 50332, "x": null, "y": 0.565}, {"type": "position", "time": 50384, "x": null, "y": 0.58}, {"type": "position", "time": 50434, "x": null, "y": 0.5816666666666667}, {"type": "position", "time": 50485, "x": null, "y": 0.5816666666666667}, {"type": "position", "time": 50536, "x": null, "y": 0.5816666666666667}, {"type": "position", "time": 50586, "x": null, "y": 0.5816666666666667}, {"type": "position", "time": 50637, "x": null, "y": 0.5816666666666667}, {"type": "position", "time": 50687, "x": null, "y": 0.5816666666666667}, {"type": "position", "time": 50737, "x": null, "y": 0.5816666666666667}, {"type": "position", "time": 50788, "x": null, "y": 0.5816666666666667}, {"type": "position", "time": 50838, "x": null, "y": 0.5816666666666667}, {"type": "position", "time": 50889, "x": null, "y": 0.5816666666666667}, {"type": "position", "time": 50939, "x": null, "y": 0.5883333333333334}, {"type": "position", "time": 50990, "x": null, "y": 0.5883333333333334}, {"type": "position", "time": 51040, "x": null, "y": 0.5883333333333334}, {"type": "position", "time": 51091, "x": null, "y": 0.5883333333333334}, {"type": "position", "time": 51142, "x": null, "y": 0.5883333333333334}, {"type": "position", "time": 51193, "x": null, "y": 0.5883333333333334}, {"type": "position", "time": 51244, "x": null, "y": 0.5883333333333334}, {"type": "position", "time": 51296, "x": null, "y": 0.5883333333333334}, {"type": "position", "time": 51347, "x": null, "y": 0.5883333333333334}, {"type": "position", "time": 51398, "x": null, "y": 0.5883333333333334}, {"type": "position", "time": 51448, "x": null, "y": 0.5883333333333334}, {"type": "position", "time": 51498, "x": null, "y": 0.5883333333333334}, {"type": "position", "time": 51549, "x": null, "y": 0.595}, {"type": "position", "time": 51600, "x": null, "y": 0.595}, {"type": "position", "time": 51651, "x": null, "y": 0.595}, {"type": "position", "time": 51702, "x": null, "y": 0.595}, {"type": "position", "time": 51752, "x": null, "y": 0.595}, {"type": "position", "time": 51802, "x": null, "y": 0.595}, {"type": "position", "time": 51853, "x": null, "y": 0.595}, {"type": "position", "time": 51904, "x": null, "y": 0.595}, {"type": "position", "time": 51954, "x": null, "y": 0.595}, {"type": "position", "time": 52004, "x": null, "y": 0.595}, {"type": "position", "time": 52055, "x": null, "y": 0.595}, {"type": "position", "time": 52106, "x": null, "y": 0.595}, {"type": "position", "time": 52157, "x": null, "y": 0.595}, {"type": "position", "time": 52207, "x": null, "y": 0.595}, {"type": "position", "time": 52257, "x": null, "y": 0.595}, {"type": "position", "time": 52307, "x": null, "y": 0.595}, {"type": "position", "time": 52359, "x": null, "y": 0.595}, {"type": "position", "time": 52409, "x": null, "y": 0.595}, {"type": "position", "time": 52460, "x": null, "y": 0.595}, {"type": "position", "time": 52512, "x": null, "y": 0.595}, {"type": "position", "time": 52562, "x": null, "y": 0.595}, {"type": "position", "time": 52613, "x": null, "y": 0.595}, {"type": "position", "time": 52664, "x": null, "y": 0.5983333333333334}, {"type": "position", "time": 52715, "x": null, "y": 0.5983333333333334}, {"type": "position", "time": 52765, "x": null, "y": 0.5983333333333334}, {"type": "position", "time": 52815, "x": null, "y": 0.5983333333333334}, {"type": "position", "time": 52866, "x": null, "y": 0.5983333333333334}, {"type": "position", "time": 52916, "x": null, "y": 0.5983333333333334}, {"type": "position", "time": 52967, "x": null, "y": 0.5983333333333334}, {"type": "position", "time": 53017, "x": null, "y": 0.605}, {"type": "position", "time": 53067, "x": null, "y": 0.605}, {"type": "position", "time": 53118, "x": null, "y": 0.605}, {"type": "position", "time": 53168, "x": null, "y": 0.605}, {"type": "position", "time": 53218, "x": null, "y": 0.605}, {"type": "position", "time": 53268, "x": null, "y": 0.605}, {"type": "position", "time": 53318, "x": null, "y": 0.605}, {"type": "position", "time": 53369, "x": null, "y": 0.605}, {"type": "position", "time": 53419, "x": null, "y": 0.605}, {"type": "position", "time": 53469, "x": null, "y": 0.605}, {"type": "position", "time": 53520, "x": null, "y": 0.605}, {"type": "position", "time": 53570, "x": null, "y": 0.605}, {"type": "position", "time": 53620, "x": null, "y": 0.605}, {"type": "position", "time": 53670, "x": null, "y": 0.605}, {"type": "position", "time": 53720, "x": null, "y": 0.605}, {"type": "position", "time": 53770, "x": null, "y": 0.605}, {"type": "position", "time": 53821, "x": null, "y": 0.605}, {"type": "position", "time": 53871, "x": null, "y": 0.605}, {"type": "position", "time": 53921, "x": null, "y": 0.605}, {"type": "position", "time": 53971, "x": null, "y": 0.605}, {"type": "position", "time": 54021, "x": null, "y": 0.605}, {"type": "position", "time": 54072, "x": null, "y": 0.605}, {"type": "position", "time": 54123, "x": null, "y": 0.6116666666666667}, {"type": "position", "time": 54174, "x": null, "y": 0.6116666666666667}, {"type": "position", "time": 54224, "x": null, "y": 0.6116666666666667}, {"type": "position", "time": 54275, "x": null, "y": 0.6116666666666667}, {"type": "position", "time": 54325, "x": null, "y": 0.6116666666666667}, {"type": "position", "time": 54376, "x": null, "y": 0.6116666666666667}, {"type": "position", "time": 54427, "x": null, "y": 0.6116666666666667}, {"type": "position", "time": 54478, "x": null, "y": 0.6116666666666667}, {"type": "position", "time": 54529, "x": null, "y": 0.6183333333333333}, {"type": "position", "time": 54579, "x": null, "y": 0.6183333333333333}, {"type": "position", "time": 54629, "x": null, "y": 0.6183333333333333}, {"type": "position", "time": 54680, "x": null, "y": 0.6183333333333333}, {"type": "position", "time": 54730, "x": null, "y": 0.6183333333333333}, {"type": "position", "time": 54781, "x": null, "y": 0.625}, {"type": "position", "time": 54831, "x": null, "y": 0.625}, {"type": "position", "time": 54882, "x": null, "y": 0.625}, {"type": "position", "time": 54933, "x": null, "y": 0.625}, {"type": "position", "time": 54984, "x": null, "y": 0.625}, {"type": "position", "time": 55035, "x": null, "y": 0.625}, {"type": "position", "time": 55085, "x": null, "y": 0.6316666666666667}, {"type": "position", "time": 55136, "x": null, "y": 0.6316666666666667}, {"type": "position", "time": 55187, "x": null, "y": 0.6316666666666667}, {"type": "position", "time": 55238, "x": null, "y": 0.6316666666666667}, {"type": "position", "time": 55289, "x": null, "y": 0.6316666666666667}, {"type": "position", "time": 55339, "x": null, "y": 0.6316666666666667}, {"type": "position", "time": 55390, "x": null, "y": 0.6316666666666667}, {"type": "position", "time": 55441, "x": null, "y": 0.6316666666666667}, {"type": "position", "time": 55492, "x": null, "y": 0.6316666666666667}, {"type": "position", "time": 55543, "x": null, "y": 0.6316666666666667}, {"type": "position", "time": 55593, "x": null, "y": 0.6316666666666667}, {"type": "position", "time": 55643, "x": null, "y": 0.6316666666666667}, {"type": "position", "time": 55694, "x": null, "y": 0.6316666666666667}, {"type": "position", "time": 55745, "x": null, "y": 0.6316666666666667}, {"type": "position", "time": 55795, "x": null, "y": 0.6316666666666667}, {"type": "position", "time": 55846, "x": null, "y": 0.6316666666666667}, {"type": "position", "time": 55897, "x": null, "y": 0.6316666666666667}, {"type": "position", "time": 55947, "x": null, "y": 0.6316666666666667}, {"type": "position", "time": 55998, "x": null, "y": 0.6316666666666667}, {"type": "position", "time": 56048, "x": null, "y": 0.6316666666666667}, {"type": "position", "time": 56099, "x": null, "y": 0.6316666666666667}, {"type": "position", "time": 56150, "x": null, "y": 0.6316666666666667}, {"type": "position", "time": 56201, "x": null, "y": 0.6316666666666667}, {"type": "position", "time": 56251, "x": null, "y": 0.6316666666666667}, {"type": "position", "time": 56302, "x": null, "y": 0.6316666666666667}, {"type": "position", "time": 56353, "x": null, "y": 0.6316666666666667}, {"type": "position", "time": 56404, "x": null, "y": 0.6316666666666667}, {"type": "position", "time": 56455, "x": null, "y": 0.6316666666666667}, {"type": "position", "time": 56506, "x": null, "y": 0.6316666666666667}, {"type": "position", "time": 56557, "x": null, "y": 0.6316666666666667}, {"type": "position", "time": 56609, "x": null, "y": 0.6316666666666667}, {"type": "position", "time": 56659, "x": null, "y": 0.6316666666666667}, {"type": "position", "time": 56710, "x": null, "y": 0.6316666666666667}, {"type": "position", "time": 56760, "x": null, "y": 0.6316666666666667}, {"type": "position", "time": 56811, "x": null, "y": 0.6316666666666667}, {"type": "position", "time": 56862, "x": null, "y": 0.6316666666666667}, {"type": "position", "time": 56913, "x": null, "y": 0.6316666666666667}, {"type": "position", "time": 56963, "x": null, "y": 0.6316666666666667}, {"type": "position", "time": 57014, "x": null, "y": 0.6316666666666667}, {"type": "position", "time": 57064, "x": null, "y": 0.6316666666666667}, {"type": "position", "time": 57115, "x": null, "y": 0.6383333333333333}, {"type": "position", "time": 57166, "x": null, "y": 0.6383333333333333}, {"type": "position", "time": 57217, "x": null, "y": 0.6383333333333333}, {"type": "position", "time": 57268, "x": null, "y": 0.6383333333333333}, {"type": "position", "time": 57319, "x": null, "y": 0.6383333333333333}, {"type": "position", "time": 57370, "x": null, "y": 0.6383333333333333}, {"type": "position", "time": 57421, "x": null, "y": 0.6383333333333333}, {"type": "position", "time": 57471, "x": null, "y": 0.6383333333333333}, {"type": "position", "time": 57522, "x": null, "y": 0.6383333333333333}, {"type": "position", "time": 57572, "x": null, "y": 0.6383333333333333}, {"type": "position", "time": 57624, "x": null, "y": 0.6383333333333333}, {"type": "position", "time": 57675, "x": null, "y": 0.6383333333333333}, {"type": "position", "time": 57725, "x": null, "y": 0.6383333333333333}, {"type": "position", "time": 57776, "x": null, "y": 0.645}, {"type": "position", "time": 57826, "x": null, "y": 0.645}, {"type": "position", "time": 57877, "x": null, "y": 0.645}, {"type": "position", "time": 57927, "x": null, "y": 0.645}, {"type": "position", "time": 57977, "x": null, "y": 0.6516666666666666}, {"type": "position", "time": 58028, "x": null, "y": 0.6516666666666666}, {"type": "position", "time": 58079, "x": null, "y": 0.6516666666666666}, {"type": "position", "time": 58129, "x": null, "y": 0.6583333333333333}, {"type": "position", "time": 58179, "x": null, "y": 0.6583333333333333}, {"type": "position", "time": 58230, "x": null, "y": 0.6583333333333333}, {"type": "position", "time": 58281, "x": null, "y": 0.6583333333333333}, {"type": "position", "time": 58331, "x": null, "y": 0.665}, {"type": "position", "time": 58382, "x": null, "y": 0.665}, {"type": "position", "time": 58432, "x": null, "y": 0.665}, {"type": "position", "time": 58483, "x": null, "y": 0.665}, {"type": "position", "time": 58534, "x": null, "y": 0.665}, {"type": "position", "time": 58584, "x": null, "y": 0.665}, {"type": "position", "time": 58636, "x": null, "y": 0.665}, {"type": "position", "time": 58686, "x": null, "y": 0.665}, {"type": "position", "time": 58737, "x": null, "y": 0.665}, {"type": "position", "time": 58788, "x": null, "y": 0.665}, {"type": "position", "time": 58838, "x": null, "y": 0.675}, {"type": "position", "time": 58889, "x": null, "y": 0.6783333333333333}, {"type": "position", "time": 58939, "x": null, "y": 0.6783333333333333}, {"type": "position", "time": 58990, "x": null, "y": 0.6783333333333333}, {"type": "position", "time": 59040, "x": null, "y": 0.6783333333333333}, {"type": "position", "time": 59090, "x": null, "y": 0.6783333333333333}, {"type": "position", "time": 59141, "x": null, "y": 0.68}, {"type": "position", "time": 59191, "x": null, "y": 0.68}, {"type": "position", "time": 59242, "x": null, "y": 0.68}, {"type": "position", "time": 59293, "x": null, "y": 0.68}, {"type": "position", "time": 59343, "x": null, "y": 0.68}, {"type": "position", "time": 59394, "x": null, "y": 0.68}, {"type": "position", "time": 59445, "x": null, "y": 0.68}, 