{"SubmitTime": "2016-03-10T20:52:37Z", "AssignmentId": "3R3YRB5GRF3M83999WVSVY6SWJLAUQ", "HITId": "38G0E1M85M53D7EEUOHN21OJ7HQVU5", "answers": {"data": {"trials": [{"story": "guitar", "time": 22318, "name": "Abigail", "rt": 8798, "blocknum": 0, "qtype": "probability", "response": 0.76, "trialnum": 1, "gender": "female", "qnum": 0}, {"story": "guitar", "time": 22318, "name": "Abigail", "rt": 8798, "blocknum": 0, "qtype": "ungrammatical", "trialnum": 1, "gender": "female", "qnum": 0}, {"story": "guitar", "time": 37402, "name": "Vanessa", "rt": 15059, "blocknum": 0, "qtype": "explanation", "response": "her skin was tough", "trialnum": 2, "gender": "female", "qnum": 1}, {"story": "guitar", "time": 41224, "name": "Vanessa", "rt": 3792, "blocknum": 0, "qtype": "probability", "response": 0.69, "trialnum": 3, "gender": "female", "qnum": 2}, {"story": "guitar", "time": 41224, "name": "Vanessa", "rt": 3792, "blocknum": 0, "qtype": "ungrammatical", "trialnum": 3, "gender": "female", "qnum": 2}, {"story": "guitar", "time": 62801, "name": "Olivia", "rt": 21561, "blocknum": 0, "qtype": "probability", "response": 0.7, "trialnum": 4, "gender": "female", "qnum": 3}, {"story": "guitar", "time": 62801, "name": "Olivia", "rt": 21561, "blocknum": 0, "qtype": "ungrammatical", "response": true, "trialnum": 4, "gender": "female", "qnum": 3}, {"story": "guitar", "time": 74561, "name": "Ethan", "rt": 11743, "blocknum": 0, "qtype": "probability", "response": 0.65, "trialnum": 5, "gender": "male", "qnum": 4}, {"story": "guitar", "time": 74561, "name": "Ethan", "rt": 11743, "blocknum": 0, "qtype": "ungrammatical", "response": true, "trialnum": 5, "gender": "male", "qnum": 4}, {"story": "guitar", "time": 102383, "name": "Alyssa", "rt": 27808, "blocknum": 0, "qtype": "probability", "response": 0.71, "trialnum": 6, "gender": "female", "qnum": 5}, {"story": "guitar", "time": 102383, "name": "Alyssa", "rt": 27808, "blocknum": 0, "qtype": "ungrammatical", "response": false, "trialnum": 6, "gender": "female", "qnum": 5}, {"story": "fitness", "time": 108905, "name": "Jennifer", "rt": 6499, "blocknum": 1, "qtype": "probability", "response": 0.84, "trialnum": 8, "gender": "female", "qnum": 0}, {"story": "fitness", "time": 108905, "name": "Jennifer", "rt": 6499, "blocknum": 1, "qtype": "ungrammatical", "trialnum": 8, "gender": "female", "qnum": 0}, {"story": "fitness", "time": 116013, "name": "Joshua", "rt": 7101, "blocknum": 1, "qtype": "explanation", "response": "he ate too much", "trialnum": 9, "gender": "male", "qnum": 1}, {"story": "fitness", "time": 136933, "name": "Joshua", "rt": 20906, "blocknum": 1, "qtype": "probability", "response": 0.71, "trialnum": 10, "gender": "male", "qnum": 2}, {"story": "fitness", "time": 136933, "name": "Joshua", "rt": 20906, "blocknum": 1, "qtype": "ungrammatical", "trialnum": 10, "gender": "male", "qnum": 2}, {"story": "fitness", "time": 146772, "name": "Corey", "rt": 9824, "blocknum": 1, "qtype": "probability", "response": 0.63, "trialnum": 11, "gender": "male", "qnum": 3}, {"story": "fitness", "time": 146772, "name": "Corey", "rt": 9824, "blocknum": 1, "qtype": "ungrammatical", "response": false, "trialnum": 11, "gender": "male", "qnum": 3}, {"story": "fitness", "time": 154020, "name": "Allison", "rt": 7235, "blocknum": 1, "qtype": "probability", "response": 0.79, "trialnum": 12, "gender": "female", "qnum": 4}, {"story": "fitness", "time": 154020, "name": "Allison", "rt": 7235, "blocknum": 1, "qtype": "ungrammatical", "response": false, "trialnum": 12, "gender": "female", "qnum": 4}, {"story": "fitness", "time": 164499, "name": "Jared", "rt": 10465, "blocknum": 1, "qtype": "probability", "response": 0.7, "trialnum": 13, "gender": "male", "qnum": 5}, {"story": "fitness", "time": 164499, "name": "Jared", "rt": 10465, "blocknum": 1, "qtype": "ungrammatical", "response": false, "trialnum": 13, "gender": "male", "qnum": 5}, {"story": "insomnia", "time": 169196, "name": "Logan", "rt": 4680, "blocknum": 2, "qtype": "probability", "response": 0.65, "trialnum": 15, "gender": "male", "qnum": 0}, {"story": "insomnia", "time": 169196, "name": "Logan", "rt": 4680, "blocknum": 2, "qtype": "ungrammatical", "trialnum": 15, "gender": "male", "qnum": 0}, {"story": "insomnia", "time": 186636, "name": "Erica", "rt": 17433, "blocknum": 2, "qtype": "explanation", "response": "she overcame it", "trialnum": 16, "gender": "female", "qnum": 1}, {"story": "insomnia", "time": 191881, "name": "Erica", "rt": 5214, "blocknum": 2, "qtype": "probability", "response": 0.49, "trialnum": 17, "gender": "female", "qnum": 2}, {"story": "insomnia", "time": 191881, "name": "Erica", "rt": 5214, "blocknum": 2, "qtype": "ungrammatical", "trialnum": 17, "gender": "female", "qnum": 2}, {"story": "insomnia", "time": 207632, "name": "Jeff", "rt": 15736, "blocknum": 2, "qtype": "probability", "response": 0.5, "trialnum": 18, "gender": "male", "qnum": 3}, {"story": "insomnia", "time": 207632, "name": "Jeff", "rt": 15736, "blocknum": 2, "qtype": "ungrammatical", "response": false, "trialnum": 18, "gender": "male", "qnum": 3}, {"story": "insomnia", "time": 217952, "name": "Cassandra", "rt": 10306, "blocknum": 2, "qtype": "probability", "response": 0.68, "trialnum": 19, "gender": "female", "qnum": 4}, {"story": "insomnia", "time": 217952, "name": "Cassandra", "rt": 10306, "blocknum": 2, "qtype": "ungrammatical", "response": true, "trialnum": 19, "gender": "female", "qnum": 4}, {"story": "insomnia", "time": 223733, "name": "Katie", "rt": 5770, "blocknum": 2, "qtype": "probability", "response": 0.47, "trialnum": 20, "gender": "female", "qnum": 5}, {"story": "insomnia", "time": 223733, "name": "Katie", "rt": 5770, "blocknum": 2, "qtype": "ungrammatical", "response": false, "trialnum": 20, "gender": "female", "qnum": 5}, {"story": "painting", "time": 229092, "name": "Laura", "rt": 5343, "blocknum": 3, "qtype": "probability", "response": 0.7, "trialnum": 22, "gender": "female", "qnum": 0}, {"story": "painting", "time": 229092, "name": "Laura", "rt": 5343, "blocknum": 3, "qtype": "ungrammatical", "trialnum": 22, "gender": "female", "qnum": 0}, {"story": "painting", "time": 236426, "name": "Paige", "rt": 7328, "blocknum": 3, "qtype": "explanation", "response": "she didn't try hard enough", "trialnum": 23, "gender": "female", "qnum": 1}, {"story": "painting", "time": 238729, "name": "Paige", "rt": 2288, "blocknum": 3, "qtype": "probability", "response": 0.59, "trialnum": 24, "gender": "female", "qnum": 2}, {"story": "painting", "time": 238729, "name": "Paige", "rt": 2288, "blocknum": 3, "qtype": "ungrammatical", "trialnum": 24, "gender": "female", "qnum": 2}, {"story": "painting", "time": 250070, "name": "Andrea", "rt": 11325, "blocknum": 3, "qtype": "probability", "response": 0.64, "trialnum": 25, "gender": "female", "qnum": 3}, {"story": "painting", "time": 250070, "name": "Andrea", "rt": 11325, "blocknum": 3, "qtype": "ungrammatical", "response": true, "trialnum": 25, "gender": "female", "qnum": 3}, {"story": "painting", "time": 259659, "name": "Stephanie", "rt": 9571, "blocknum": 3, "qtype": "probability", "response": 0.59, "trialnum": 26, "gender": "female", "qnum": 4}, {"story": "painting", "time": 259659, "name": "Stephanie", "rt": 9571, "blocknum": 3, "qtype": "ungrammatical", "response": false, "trialnum": 26, "gender": "female", "qnum": 4}, {"story": "painting", "time": 264955, "name": "Will", "rt": 5280, "blocknum": 3, "qtype": "probability", "response": 0.37, "trialnum": 27, "gender": "male", "qnum": 5}, {"story": "painting", "time": 264955, "name": "Will", "rt": 5280, "blocknum": 3, "qtype": "ungrammatical", "response": false, "trialnum": 27, "gender": "male", "qnum": 5}, {"story": "Japan", "time": 270923, "name": "Melissa", "rt": 5949, "blocknum": 4, "qtype": "probability", "response": 0.69, "trialnum": 29, "gender": "female", "qnum": 0}, {"story": "Japan", "time": 270923, "name": "Melissa", "rt": 5949, "blocknum": 4, "qtype": "ungrammatical", "trialnum": 29, "gender": "female", "qnum": 0}, {"story": "Japan", "time": 288245, "name": "Brandon", "rt": 17316, "blocknum": 4, "qtype": "explanation", "response": "he stayed on US time while he was there", "trialnum": 30, "gender": "male", "qnum": 1}, {"story": "Japan", "time": 291605, "name": "Brandon", "rt": 3340, "blocknum": 4, "qtype": "probability", "response": 0.86, "trialnum": 31, "gender": "male", "qnum": 2}, {"story": "Japan", "time": 291605, "name": "Brandon", "rt": 3340, "blocknum": 4, "qtype": "ungrammatical", "trialnum": 31, "gender": "male", "qnum": 2}, {"story": "Japan", "time": 300507, "name": "Mary", "rt": 8891, "blocknum": 4, "qtype": "probability", "response": 0.87, "trialnum": 32, "gender": "female", "qnum": 3}, {"story": "Japan", "time": 300507, "name": "Mary", "rt": 8891, "blocknum": 4, "qtype": "ungrammatical", "response": false, "trialnum": 32, "gender": "female", "qnum": 3}, {"story": "Japan", "time": 304917, "name": "Chelsea", "rt": 4397, "blocknum": 4, "qtype": "probability", "response": 0.93, "trialnum": 33, "gender": "female", "qnum": 4}, {"story": "Japan", "time": 304917, "name": "Chelsea", "rt": 4397, "blocknum": 4, "qtype": "ungrammatical", "response": false, "trialnum": 33, "gender": "female", "qnum": 4}, {"story": "Japan", "time": 307905, "name": "Robert", "rt": 2977, "blocknum": 4, "qtype": "probability", "response": 0.92, "trialnum": 34, "gender": "male", "qnum": 5}, {"story": "Japan", "time": 307905, "name": "Robert", "rt": 2977, "blocknum": 4, "qtype": "ungrammatical", "response": false, "trialnum": 34, "gender": "male", "qnum": 5}, {"story": "coffee", "time": 313187, "name": "Caleb", "rt": 5268, "blocknum": 5, "qtype": "probability", "response": 0.71, "trialnum": 36, "gender": "male", "qnum": 0}, {"story": "coffee", "time": 313187, "name": "Caleb", "rt": 5268, "blocknum": 5, "qtype": "ungrammatical", "trialnum": 36, "gender": "male", "qnum": 0}, {"story": "coffee", "time": 322715, "name": "Noah", "rt": 9520, "blocknum": 5, "qtype": "explanation", "response": "he didn't drink enough", "trialnum": 37, "gender": "male", "qnum": 1}, {"story": "coffee", "time": 327159, "name": "Noah", "rt": 4422, "blocknum": 5, "qtype": "probability", "response": 0.45, "trialnum": 38, "gender": "male", "qnum": 2}, {"story": "coffee", "time": 327159, "name": "Noah", "rt": 4422, "blocknum": 5, "qtype": "ungrammatical", "trialnum": 38, "gender": "male", "qnum": 2}, {"story": "coffee", "time": 335147, "name": "Dylan", "rt": 7970, "blocknum": 5, "qtype": "probability", "response": 0.79, "trialnum": 39, "gender": "male", "qnum": 3}, {"story": "coffee", "time": 335147, "name": "Dylan", "rt": 7970, "blocknum": 5, "qtype": "ungrammatical", "response": true, "trialnum": 39, "gender": "male", "qnum": 3}, {"story": "coffee", "time": 343832, "name": "Jasmine", "rt": 8670, "blocknum": 5, "qtype": "probability", "response": 0.67, "trialnum": 40, "gender": "female", "qnum": 4}, {"story": "coffee", "time": 343832, "name": "Jasmine", "rt": 8670, "blocknum": 5, "qtype": "ungrammatical", "response": false, "trialnum": 40, "gender": "female", "qnum": 4}, {"story": "coffee", "time": 352000, "name": "James", "rt": 8157, "blocknum": 5, "qtype": "probability", "response": 0.29, "trialnum": 41, "gender": "male", "qnum": 5}, {"story": "coffee", "time": 352000, "name": "James", "rt": 8157, "blocknum": 5, "qtype": "ungrammatical", "response": false, "trialnum": 41, "gender": "male", "qnum": 5}, {"story": "reading", "time": 357564, "name": "Brianna", "rt": 5547, "blocknum": 6, "qtype": "probability", "response": 0.74, "trialnum": 43, "gender": "female", "qnum": 0}, {"story": "reading", "time": 357564, "name": "Brianna", "rt": 5547, "blocknum": 6, "qtype": "ungrammatical", "trialnum": 43, "gender": "female", "qnum": 0}, {"story": "reading", "time": 368532, "name": "Julia", "rt": 10962, "blocknum": 6, "qtype": "explanation", "response": "she took breaks", "trialnum": 44, "gender": "female", "qnum": 1}, {"story": "reading", "time": 371036, "name": "Julia", "rt": 2489, "blocknum": 6, "qtype": "probability", "response": 0.8, "trialnum": 45, "gender": "female", "qnum": 2}, {"story": "reading", "time": 371036, "name": "Julia", "rt": 2489, "blocknum": 6, "qtype": "ungrammatical", "trialnum": 45, "gender": "female", "qnum": 2}, {"story": "reading", "time": 377685, "name": "Mark", "rt": 6635, "blocknum": 6, "qtype": "probability", "response": 0.8, "trialnum": 46, "gender": "male", "qnum": 3}, {"story": "reading", "time": 377685, "name": "Mark", "rt": 6635, "blocknum": 6, "qtype": "ungrammatical", "response": false, "trialnum": 46, "gender": "male", "qnum": 3}, {"story": "reading", "time": 381746, "name": "Rebecca", "rt": 4049, "blocknum": 6, "qtype": "probability", "response": 0.89, "trialnum": 47, "gender": "female", "qnum": 4}, {"story": "reading", "time": 381746, "name": "Rebecca", "rt": 4049, "blocknum": 6, "qtype": "ungrammatical", "response": false, "trialnum": 47, "gender": "female", "qnum": 4}, {"story": "reading", "time": 385787, "name": "Justin", "rt": 4028, "blocknum": 6, "qtype": "probability", "response": 0.64, "trialnum": 48, "gender": "male", "qnum": 5}, {"story": "reading", "time": 385787, "name": "Justin", "rt": 4028, "blocknum": 6, "qtype": "ungrammatical", "response": false, "trialnum": 48, "gender": "male", "qnum": 5}, {"story": "cooking", "time": 395523, "name": "Scott", "rt": 9720, "blocknum": 7, "qtype": "probability", "response": 0.82, "trialnum": 50, "gender": "male", "qnum": 0}, {"story": "cooking", "time": 395523, "name": "Scott", "rt": 9720, "blocknum": 7, "qtype": "ungrammatical", "trialnum": 50, "gender": "male", "qnum": 0}, {"story": "cooking", "time": 405515, "name": "Kelsey", "rt": 9985, "blocknum": 7, "qtype": "explanation", "response": "she was too shy to talk to anyone", "trialnum": 51, "gender": "female", "qnum": 1}, {"story": "cooking", "time": 412785, "name": "Kelsey", "rt": 7233, "blocknum": 7, "qtype": "probability", "response": 0.8, "trialnum": 52, "gender": "female", "qnum": 2}, {"story": "cooking", "time": 412785, "name": "Kelsey", "rt": 7233, "blocknum": 7, "qtype": "ungrammatical", "trialnum": 52, "gender": "female", "qnum": 2}, {"story": "cooking", "time": 418347, "name": "Kelly", "rt": 5545, "blocknum": 7, "qtype": "probability", "response": 0.73, "trialnum": 53, "gender": "female", "qnum": 3}, {"story": "cooking", "time": 418347, "name": "Kelly", "rt": 5545, "blocknum": 7, "qtype": "ungrammatical", "response": false, "trialnum": 53, "gender": "female", "qnum": 3}, {"story": "cooking", "time": 429618, "name": "Ryan", "rt": 11258, "blocknum": 7, "qtype": "probability", "response": 0.74, "trialnum": 54, "gender": "male", "qnum": 4}, {"story": "cooking", "time": 429618, "name": "Ryan", "rt": 11258, "blocknum": 7, "qtype": "ungrammatical", "response": false, "trialnum": 54, "gender": "male", "qnum": 4}, {"story": "cooking", "time": 433745, "name": "Hannah", "rt": 4111, "blocknum": 7, "qtype": "probability", "response": 0.8, "trialnum": 55, "gender": "female", "qnum": 5}, {"story": "cooking", "time": 433745, "name": "Hannah", "rt": 4111, "blocknum": 7, "qtype": "ungrammatical", "response": false, "trialnum": 55, "gender": "female", "qnum": 5}, {"story": "beach", "time": 437669, "name": "Sarah", "rt": 3906, "blocknum": 8, "qtype": "probability", "response": 0.79, "trialnum": 57, "gender": "female", "qnum": 0}, {"story": "beach", "time": 437669, "name": "Sarah", "rt": 3906, "blocknum": 8, "qtype": "ungrammatical", "trialnum": 57, "gender": "female", "qnum": 0}, {"story": "beach", "time": 448389, "name": "Haley", "rt": 10714, "blocknum": 8, "qtype": "explanation", "response": "the sea was calm that day", "trialnum": 58, "gender": "female", "qnum": 1}, {"story": "beach", "time": 451053, "name": "Haley", "rt": 2651, "blocknum": 8, "qtype": "probability", "response": 0.85, "trialnum": 59, "gender": "female", "qnum": 2}, {"story": "beach", "time": 451053, "name": "Haley", "rt": 2651, "blocknum": 8, "qtype": "ungrammatical", "trialnum": 59, "gender": "female", "qnum": 2}, {"story": "beach", "time": 455361, "name": "Kim", "rt": 4297, "blocknum": 8, "qtype": "probability", "response": 0.86, "trialnum": 60, "gender": "female", "qnum": 3}, {"story": "beach", "time": 455361, "name": "Kim", "rt": 4297, "blocknum": 8, "qtype": "ungrammatical", "response": false, "trialnum": 60, "gender": "female", "qnum": 3}, {"story": "beach", "time": 458727, "name": "Greg", "rt": 3354, "blocknum": 8, "qtype": "probability", "response": 0.86, "trialnum": 61, "gender": "male", "qnum": 4}, {"story": "beach", "time": 458727, "name": "Greg", "rt": 3354, "blocknum": 8, "qtype": "ungrammatical", "response": false, "trialnum": 61, "gender": "male", "qnum": 4}, {"story": "beach", "time": 460903, "name": "Kayla", "rt": 2166, "blocknum": 8, "qtype": "probability", "response": 0.87, "trialnum": 62, "gender": "female", "qnum": 5}, {"story": "beach", "time": 460903, "name": "Kayla", "rt": 2166, "blocknum": 8, "qtype": "ungrammatical", "response": false, "trialnum": 62, "gender": "female", "qnum": 5}], "events": [{"type": "position", "time": 147, "x": 0, "y": 0}, {"type": "position", "time": 157, "x": 0, "y": 0}, {"type": "position", "time": 207, "x": 0, "y": 0}, {"type": "position", "time": 784, "x": 0, "y": 0}, {"type": "position", "time": 840, "x": 0, "y": 0}, {"type": "position", "time": 857, "x": 0, "y": 0}, {"type": "position", "time": 912, "x": 0, "y": 0}, {"type": "position", "time": 957, "x": 0, "y": 0}, {"type": "position", "time": 1007, "x": null, "y": 0.058333333333333334}, {"type": "position", "time": 1058, "x": null, "y": 0.058333333333333334}, {"type": "position", "time": 1107, "x": null, "y": 0.058333333333333334}, {"type": "position", "time": 1166, "x": null, "y": 0.058333333333333334}, {"type": "position", "time": 1213, "x": null, "y": 0.058333333333333334}, {"type": "position", "time": 1260, "x": null, "y": 0.058333333333333334}, {"type": "position", "time": 1307, "x": null, "y": 0.058333333333333334}, {"type": "position", "time": 1369, "x": null, "y": 0.058333333333333334}, {"type": "position", "time": 1416, "x": null, "y": 0.058333333333333334}, {"type": "position", "time": 1464, "x": null, "y": 0.058333333333333334}, {"type": "position", "time": 1511, "x": null, "y": 0.058333333333333334}, {"type": "position", "time": 1557, "x": null, "y": 0.058333333333333334}, {"type": "position", "time": 1607, "x": null, "y": 0.058333333333333334}, {"type": "position", "time": 1660, "x": null, "y": 0.058333333333333334}, {"type": "position", "time": 1707, "x": null, "y": 0.058333333333333334}, {"type": "position", "time": 1769, "x": null, "y": 0.058333333333333334}, {"type": "position", "time": 1816, "x": null, "y": 0.058333333333333334}, {"type": "position", "time": 1863, "x": null, "y": 0.058333333333333334}, {"type": "position", "time": 1910, "x": null, "y": 0.058333333333333334}, {"type": "position", "time": 1957, "x": null, "y": 0.058333333333333334}, {"type": "position", "time": 2019, "x": null, "y": 0.058333333333333334}, {"type": "position", "time": 2066, "x": null, "y": 0.058333333333333334}, {"type": "position", "time": 2113, "x": null, "y": 0.058333333333333334}, {"type": "position", "time": 2160, "x": null, "y": 0.058333333333333334}, {"type": "position", "time": 2207, "x": null, "y": 0.058333333333333334}, {"type": "position", "time": 2269, "x": null, "y": 0.058333333333333334}, {"type": "position", "time": 2347, "x": null, "y": 0.058333333333333334}, {"type": "position", "time": 2363, "x": null, "y": 0.058333333333333334}, {"type": "position", "time": 2407, "x": null, "y": 0.058333333333333334}, {"type": "position", "time": 2469, "x": null, "y": 0.058333333333333334}, {"type": "position", "time": 2532, "x": null, "y": 0.058333333333333334}, {"type": "position", "time": 2559, "x": null, "y": 0.058333333333333334}, {"type": "position", "time": 2613, "x": null, "y": 0.058333333333333334}, {"type": "position", "time": 2660, "x": null, "y": 0.058333333333333334}, {"type": "position", "time": 2707, "x": null, "y": 0.058333333333333334}, {"type": "position", "time": 2769, "x": null, "y": 0.058333333333333334}, {"type": "position", "time": 2816, "x": null, "y": 0.058333333333333334}, {"type": "position", "time": 2863, "x": null, "y": 0.058333333333333334}, {"type": "position", "time": 2910, "x": null, "y": 0.058333333333333334}, {"type": "position", "time": 2958, "x": null, "y": 0.058333333333333334}, {"type": "position", "time": 3020, "x": null, "y": 0.058333333333333334}, {"type": "position", "time": 3067, "x": null, "y": 0.058333333333333334}, {"type": "position", "time": 3114, "x": null, "y": 0.058333333333333334}, {"type": "position", "time": 3161, "x": null, "y": 0.058333333333333334}, {"type": "position", "time": 3208, "x": null, "y": 0.058333333333333334}, {"type": "position", "time": 3270, "x": null, "y": 0.058333333333333334}, {"type": "position", "time": 3364, "x": null, "y": 0.058333333333333334}, {"type": "position", "time": 3416, "x": null, "y": 0.058333333333333334}, {"type": "position", "time": 3463, "x": null, "y": 0.058333333333333334}, {"type": "position", "time": 3510, "x": null, "y": 0.058333333333333334}, {"type": "position", "time": 3557, "x": null, "y": 0.058333333333333334}, {"type": "position", "time": 3619, "x": null, "y": 0.058333333333333334}, {"type": "position", "time": 3666, "x": null, "y": 0.058333333333333334}, {"type": "position", "time": 3713, "x": null, "y": 0.058333333333333334}, {"type": "position", "time": 3760, "x": null, "y": 0.058333333333333334}, {"type": "position", "time": 3807, "x": null, "y": 0.058333333333333334}, {"type": "position", "time": 3869, "x": null, "y": 0.058333333333333334}, {"type": "position", "time": 4322, "x": null, "y": 0.058333333333333334}, {"type": "position", "time": 4359, "x": null, "y": 0.058333333333333334}, {"type": "position", "time": 4422, "x": null, "y": 0.058333333333333334}, {"type": "position", "time": 4469, "x": null, "y": 0.058333333333333334}, {"type": "position", "time": 4515, "x": null, "y": 0.058333333333333334}, {"type": "position", "time": 4562, "x": null, "y": 0.058333333333333334}, {"type": "position", "time": 4609, "x": null, "y": 0.058333333333333334}, {"type": "position", "time": 4672, "x": null, "y": 0.058333333333333334}, {"type": "position", "time": 4719, "x": null, "y": 0.058333333333333334}, {"type": "position", "time": 4765, "x": null, "y": 0.058333333333333334}, {"type": "position", "time": 4812, "x": null, "y": 0.058333333333333334}, {"type": "position", "time": 4859, "x": null, "y": 0.058333333333333334}, {"type": "position", "time": 4922, "x": null, "y": 0.058333333333333334}, {"type": "position", "time": 4969, "x": null, "y": 0.058333333333333334}, {"type": "position", "time": 5015, "x": null, "y": 0.058333333333333334}, {"type": "position", "time": 5062, "x": null, "y": 0.058333333333333334}, {"type": "position", "time": 5109, "x": null, "y": 0.058333333333333334}, {"type": "position", "time": 5172, "x": null, "y": 0.058333333333333334}, {"type": "position", "time": 5218, "x": null, "y": 0.058333333333333334}, {"type": "position", "time": 5265, "x": null, "y": 0.058333333333333334}, {"type": "position", "time": 5312, "x": null, "y": 0.058333333333333334}, {"type": "position", "time": 5359, "x": null, "y": 0.058333333333333334}, {"type": "position", "time": 5422, "x": null, "y": 0.058333333333333334}, {"type": "position", "time": 5469, "x": null, "y": 0.058333333333333334}, {"type": "position", "time": 5515, "x": null, "y": 0.058333333333333334}, {"type": "position", "time": 5562, "x": null, "y": 0.058333333333333334}, {"type": "position", "time": 5609, "x": null, "y": 0.058333333333333334}, {"type": "position", "time": 5672, "x": null, "y": 0.058333333333333334}, {"type": "position", "time": 5719, "x": null, "y": 0.058333333333333334}, {"type": "position", "time": 5765, "x": null, "y": 0.058333333333333334}, {"type": "position", "time": 5812, "x": null, "y": 0.058333333333333334}, {"type": "position", "time": 5859, "x": null, "y": 0.058333333333333334}, {"type": "position", "time": 5922, "x": null, "y": 0.058333333333333334}, {"type": "position", "time": 5969, "x": null, "y": 0.058333333333333334}, {"type": "position", "time": 6015, "x": null, "y": 0.058333333333333334}, {"type": "position", "time": 6062, "x": null, "y": 0.058333333333333334}, {"type": "position", "time": 6109, "x": null, "y": 0.058333333333333334}, {"type": "position", "time": 6172, "x": null, "y": 0.058333333333333334}, {"type": "position", "time": 6219, "x": null, "y": 0.058333333333333334}, {"type": "position", "time": 6265, "x": null, "y": 0.058333333333333334}, {"type": "position", "time": 6312, "x": null, "y": 0.058333333333333334}, {"type": "position", "time": 6359, "x": null, "y": 0.058333333333333334}, {"type": "position", "time": 6422, "x": null, "y": 0.058333333333333334}, {"type": "position", "time": 6469, "x": null, "y": 0.058333333333333334}, {"type": "position", "time": 6515, "x": null, "y": 0.058333333333333334}, {"type": "position", "time": 6562, "x": null, "y": 0.058333333333333334}, {"type": "position", "time": 6609, "x": null, "y": 0.058333333333333334}, {"type": "position", "time": 6672, "x": null, "y": 0.058333333333333334}, {"type": "position", "time": 6719, "x": null, "y": 0.058333333333333334}, {"type": "position", "time": 6765, "x": null, "y": 0.058333333333333334}, {"type": "position", "time": 6812, "x": null, "y": 0.058333333333333334}, {"type": "position", "time": 6859, "x": null, "y": 0.058333333333333334}, {"type": "position", "time": 6922, "x": null, "y": 0.058333333333333334}, {"type": "position", "time": 6969, "x": null, "y": 0.058333333333333334}, {"type": "position", "time": 7016, "x": null, "y": 0.058333333333333334}, {"type": "position", "time": 7063, "x": null, "y": 0.058333333333333334}, {"type": "position", "time": 7110, "x": null, "y": 0.058333333333333334}, {"type": "position", "time": 7157, "x": null, "y": 0.058333333333333334}, {"type": "position", "time": 7219, "x": null, "y": 0.058333333333333334}, {"type": "position", "time": 7266, "x": null, "y": 0.058333333333333334}, {"type": "position", "time": 7313, "x": null, "y": 0.058333333333333334}, {"type": "position", "time": 7360, "x": null, "y": 0.058333333333333334}, {"type": "position", "time": 7407, "x": null, "y": 0.058333333333333334}, {"type": "position", "time": 7469, "x": null, "y": 0.058333333333333334}, {"type": "position", "time": 7516, "x": null, "y": 0.058333333333333334}, {"type": "position", "time": 7563, "x": null, "y": 0.058333333333333334}, {"type": "position", "time": 7610, "x": null, "y": 0.058333333333333334}, {"type": "position", "time": 7657, "x": null, "y": 0.058333333333333334}, {"type": "position", "time": 7719, "x": null, "y": 0.058333333333333334}, {"type": "position", "time": 7766, "x": null, "y": 0.058333333333333334}, {"type": "position", "time": 7813, "x": null, "y": 0.058333333333333334}, {"type": "position", "time": 7860, "x": null, "y": 0.058333333333333334}, {"type": "position", "time": 7907, "x": null, "y": 0.058333333333333334}, {"type": "position", "time": 7969, "x": null, "y": 0.058333333333333334}, {"type": "position", "time": 8016, "x": null, "y": 0.058333333333333334}, {"type": "position", "time": 8063, "x": null, "y": 0.058333333333333334}, {"type": "position", "time": 8110, "x": null, "y": 0.058333333333333334}, {"type": "position", "time": 8157, "x": null, "y": 0.058333333333333334}, {"type": "position", "time": 8219, "x": null, "y": 0.058333333333333334}, {"type": "position", "time": 8266, "x": null, "y": 0.058333333333333334}, {"type": "position", "time": 8313, "x": null, "y": 0.058333333333333334}, {"type": "position", "time": 8360, "x": null, "y": 0.058333333333333334}, {"type": "position", "time": 8407, "x": null, "y": 0.058333333333333334}, {"type": "position", "time": 8469, "x": null, "y": 0.058333333333333334}, {"type": "position", "time": 8516, "x": null, "y": 0.058333333333333334}, {"type": "position", "time": 8563, "x": null, "y": 0.058333333333333334}, {"type": "position", "time": 8610, "x": null, "y": 0.058333333333333334}, {"type": "position", "time": 8657, "x": null, "y": 0.058333333333333334}, {"type": "position", "time": 8719, "x": null, "y": 0.058333333333333334}, {"type": "position", "time": 8766, "x": null, "y": 0.058333333333333334}, {"type": "position", "time": 8813, "x": null, "y": 0.058333333333333334}, {"type": "position", "time": 8860, "x": null, "y": 0.058333333333333334}, {"type": "position", "time": 8907, "x": null, "y": 0.058333333333333334}, {"type": "position", "time": 8971, "x": null, "y": 0.058333333333333334}, {"type": "position", "time": 9017, "x": null, "y": 0.058333333333333334}, {"type": "position", "time": 9064, "x": null, "y": 0.058333333333333334}, {"type": "position", "time": 9111, "x": null, "y": 0.058333333333333334}, {"type": "position", "time": 9158, "x": null, "y": 0.058333333333333334}, {"type": "position", "time": 9220, "x": null, "y": 0.058333333333333334}, {"type": "position", "time": 9267, "x": null, "y": 0.058333333333333334}, {"type": "position", "time": 9314, "x": null, "y": 0.058333333333333334}, {"type": "position", "time": 9361, "x": null, "y": 0.058333333333333334}, {"type": "position", "time": 9408, "x": null, "y": 0.058333333333333334}, {"type": "position", "time": 9471, "x": null, "y": 0.058333333333333334}, {"type": "position", "time": 9517, "x": null, "y": 0.058333333333333334}, {"type": "position", "time": 9564, "x": null, "y": 0.058333333333333334}, {"type": "position", "time": 9611, "x": null, "y": 0.058333333333333334}, {"type": "position", "time": 9658, "x": null, "y": 0.058333333333333334}, {"type": "position", "time": 9720, "x": null, "y": 0.058333333333333334}, {"type": "position", "time": 9767, "x": null, "y": 0.058333333333333334}, {"type": "position", "time": 9814, "x": null, "y": 0.058333333333333334}, {"type": "position", "time": 9861, "x": null, "y": 0.058333333333333334}, {"type": "position", "time": 9908, "x": null, "y": 0.058333333333333334}, {"type": "position", "time": 9971, "x": null, "y": 0.058333333333333334}, {"type": "position", "time": 10017, "x": null, "y": 0.058333333333333334}, {"type": "position", "time": 10064, "x": null, "y": 0.058333333333333334}, {"type": "position", "time": 10111, "x": null, "y": 0.058333333333333334}, {"type": "position", "time": 10158, "x": null, "y": 0.058333333333333334}, {"type": "position", "time": 10221, "x": null, "y": 0.058333333333333334}, {"type": "position", "time": 10267, "x": null, "y": 0.058333333333333334}, {"type": "position", "time": 10314, "x": null, "y": 0.058333333333333334}, {"type": "position", "time": 10392, "x": null, "y": 0.058333333333333334}, {"type": "position", "time": 10407, "x": null, "y": 0.058333333333333334}, {"type": "position", "time": 10471, "x": null, "y": 0.058333333333333334}, {"type": "position", "time": 10517, "x": null, "y": 0.058333333333333334}, {"type": "position", "time": 10564, "x": null, "y": 0.058333333333333334}, {"type": "position", "time": 10611, "x": null, "y": 0.058333333333333334}, {"type": "position", "time": 10658, "x": null, "y": 0.058333333333333334}, {"type": "position", "time": 10721, "x": null, "y": 0.058333333333333334}, {"type": "position", "time": 10767, "x": null, "y": 0.058333333333333334}, {"type": "position", "time": 10814, "x": null, "y": 0.058333333333333334}, {"type": "position", "time": 10861, "x": null, "y": 0.058333333333333334}, {"type": "position", "time": 10908, "x": null, "y": 0.058333333333333334}, {"type": "position", "time": 10970, "x": null, "y": 0.058333333333333334}, {"type": "position", "time": 11017, "x": null, "y": 0.058333333333333334}, {"type": "position", "time": 11064, "x": null, "y": 0.058333333333333334}, {"type": "position", "time": 11111, "x": null, "y": 0.058333333333333334}, {"type": "position", "time": 11158, "x": null, "y": 0.058333333333333334}, {"type": "position", "time": 11220, "x": null, "y": 0.058333333333333334}, {"type": "position", "time": 11314, "x": null, "y": 0.058333333333333334}, {"type": "position", "time": 11366, "x": null, "y": 0.058333333333333334}, {"type": "position", "time": 11413, "x": null, "y": 0.058333333333333334}, {"type": "position", "time": 11460, "x": null, "y": 0.058333333333333334}, {"type": "position", "time": 11507, "x": null, "y": 0.058333333333333334}, {"type": "position", "time": 11569, "x": null, "y": 0.058333333333333334}, {"type": "position", "time": 11616, "x": null, "y": 0.058333333333333334}, {"type": "position", "time": 11663, "x": null, "y": 0.058333333333333334}, {"type": "position", "time": 11710, "x": null, "y": 0.058333333333333334}, {"type": "position", "time": 11757, "x": null, "y": 0.058333333333333334}, {"type": "position", "time": 11819, "x": null, "y": 0.058333333333333334}, {"type": "position", "time": 11866, "x": null, "y": 0.058333333333333334}, {"type": "position", "time": 11913, "x": null, "y": 0.058333333333333334}, {"type": "position", "time": 11960, "x": null, "y": 0.058333333333333334}, {"type": "position", "time": 12007, "x": null, "y": 0.058333333333333334}, {"type": "position", "time": 12069, "x": null, "y": 0.058333333333333334}, {"type": "position", "time": 12116, "x": null, "y": 0.058333333333333334}, {"type": "position", "time": 12163, "x": null, "y": 0.058333333333333334}, {"type": "position", "time": 12210, "x": null, "y": 0.058333333333333334}, {"type": "position", "time": 12257, "x": null, "y": 0.058333333333333334}, {"type": "position", "time": 12397, "x": null, "y": 0.075}, {"type": "position", "time": 12411, "x": null, "y": 0.145}, {"type": "position", "time": 12458, "x": null, "y": 0.22666666666666666}, {"type": "position", "time": 12509, "x": null, "y": 0.23833333333333334}, {"type": "position", "time": 12572, "x": null, "y": 0.23833333333333334}, {"type": "position", "time": 12619, "x": null, "y": 0.2733333333333333}, {"type": "position", "time": 12665, "x": null, "y": 0.33666666666666667}, {"type": "position", "time": 12708, "x": null, "y": 0.39166666666666666}, {"type": "position", "time": 12765, "x": null, "y": 0.41333333333333333}, {"type": "position", "time": 12812, "x": null, "y": 0.4266666666666667}, {"type": "position", "time": 12859, "x": null, "y": 0.4583333333333333}, {"type": "position", "time": 13425, "x": null, "y": 0.4766666666666667}, {"type": "click", "time": 13521, "x": null, "y": 0.4766666666666667}, {"type": "position", "time": 13559, "x": null, "y": 0.48833333333333334}, {"type": "position", "time": 13607, "x": null, "y": 0.48333333333333334}, {"type": "position", "time": 13668, "x": null, "y": 0.48333333333333334}, {"type": "position", "time": 13708, "x": null, "y": 0.485}, {"type": "position", "time": 13762, "x": null, "y": 0.48}, {"type": "position", "time": 13812, "x": null, "y": 0.475}, {"type": "position", "time": 13857, "x": null, "y": 0.475}, {"type": "position", "time": 13913, "x": null, "y": 0.475}, {"type": "position", "time": 13962, "x": null, "y": 0.47333333333333333}, {"type": "position", "time": 14012, "x": null, "y": 0.4716666666666667}, {"type": "position", "time": 14057, "x": null, "y": 0.4716666666666667}, {"type": "position", "time": 14118, "x": null, "y": 0.4716666666666667}, {"type": "position", "time": 14164, "x": null, "y": 0.4716666666666667}, {"type": "position", "time": 14211, "x": null, "y": 0.4716666666666667}, {"type": "position", "time": 14258, "x": null, "y": 0.4716666666666667}, {"type": "position", "time": 14321, "x": null, "y": 0.4716666666666667}, {"type": "position", "time": 14383, "x": null, "y": 0.4716666666666667}, {"type": "position", "time": 14407, "x": null, "y": 0.4716666666666667}, {"type": "position", "time": 14459, "x": null, "y": 0.4716666666666667}, {"type": "position", "time": 14511, "x": null, "y": 0.4716666666666667}, {"type": "position", "time": 14589, "x": null, "y": 0.4716666666666667}, {"type": "position", "time": 14607, "x": null, "y": 0.4716666666666667}, {"type": "position", "time": 14670, "x": null, "y": 0.4716666666666667}, {"type": "position", "time": 14717, "x": null, "y": 0.4716666666666667}, {"type": "position", "time": 14764, "x": null, "y": 0.4716666666666667}, {"type": "position", "time": 14810, "x": null, "y": 0.4716666666666667}, {"type": "position", "time": 14861, "x": null, "y": 0.4716666666666667}, {"type": "position", "time": 14908, "x": null, "y": 0.4716666666666667}, {"type": "position", "time": 14970, "x": null, "y": 0.4716666666666667}, {"type": "position", "time": 15017, "x": null, "y": 0.4716666666666667}, {"type": "position", "time": 15064, "x": null, "y": 0.4716666666666667}, {"type": "position", "time": 15111, "x": null, "y": 0.4716666666666667}, {"type": "position", "time": 15158, "x": null, "y": 0.4716666666666667}, {"type": "position", "time": 15220, "x": null, "y": 0.4716666666666667}, {"type": "position", "time": 15283, "x": null, "y": 0.4716666666666667}, {"type": "position", "time": 15307, "x": null, "y": 0.4716666666666667}, {"type": "position", "time": 15365, "x": null, "y": 0.4716666666666667}, {"type": "position", "time": 15412, "x": null, "y": 0.4716666666666667}, {"type": "position", "time": 15457, "x": null, "y": 0.4716666666666667}, {"type": "position", "time": 15509, "x": null, "y": 0.4716666666666667}, {"type": "position", "time": 15557, "x": null, "y": 0.4716666666666667}, {"type": "position", "time": 15619, "x": null, "y": 0.4716666666666667}, {"type": "position", "time": 15666, "x": null, "y": 0.4716666666666667}, {"type": "position", "time": 15713, "x": null, "y": 0.4716666666666667}, {"type": "position", "time": 15760, "x": null, "y": 0.4716666666666667}, {"type": "position", "time": 15807, "x": null, "y": 0.4716666666666667}, {"type": "position", "time": 15869, "x": null, "y": 0.4716666666666667}, {"type": "position", "time": 15916, "x": null, "y": 0.4716666666666667}, {"type": "position", "time": 15963, "x": null, "y": 0.4716666666666667}, {"type": "position", "time": 16010, "x": null, "y": 0.4716666666666667}, {"type": "position", "time": 16057, "x": null, "y": 0.4716666666666667}, {"type": "position", "time": 16119, "x": null, "y": 0.4716666666666667}, {"type": "position", "time": 16166, "x": null, "y": 0.4716666666666667}, {"type": "position", "time": 16213, "x": null, "y": 0.4716666666666667}, {"type": "position", "time": 16260, "x": null, "y": 0.4716666666666667}, {"type": "position", "time": 16307, "x": null, "y": 0.4716666666666667}, {"type": "position", "time": 16369, "x": null, "y": 0.4716666666666667}, {"type": "position", "time": 16416, "x": null, "y": 0.4716666666666667}, {"type": "position", "time": 16457, "x": null, "y": 0.4716666666666667}, {"type": "position", "time": 16512, "x": null, "y": 0.4716666666666667}, {"type": "position", "time": 16559, "x": null, "y": 0.4716666666666667}, {"type": "position", "time": 16622, "x": null, "y": 0.4716666666666667}, {"type": "position", "time": 16668, "x": null, "y": 0.4716666666666667}, {"type": "position", "time": 16715, "x": null, "y": 0.4716666666666667}, {"type": "position", "time": 16762, "x": null, "y": 0.4716666666666667}, {"type": "position", "time": 16809, "x": null, "y": 0.4716666666666667}, {"type": "position", "time": 16872, "x": null, "y": 0.4716666666666667}, {"type": "position", "time": 16918, "x": null, "y": 0.4716666666666667}, {"type": "position", "time": 16965, "x": null, "y": 0.4716666666666667}, {"type": "position", "time": 17012, "x": null, "y": 0.4716666666666667}, {"type": "position", "time": 17059, "x": null, "y": 0.4716666666666667}, {"type": "position", "time": 17122, "x": null, "y": 0.4716666666666667}, {"type": "position", "time": 17168, "x": null, "y": 0.4716666666666667}, {"type": "position", "time": 17215, "x": null, "y": 0.4716666666666667}, {"type": "position", "time": 17262, "x": null, "y": 0.4716666666666667}, {"type": "position", "time": 17309, "x": null, "y": 0.4716666666666667}, {"type": "position", "time": 17372, "x": null, "y": 0.4716666666666667}, {"type": "position", "time": 17418, "x": null, "y": 0.4716666666666667}, {"type": "position", "time": 17457, "x": null, "y": 0.4716666666666667}, {"type": "position", "time": 17518, "x": null, "y": 0.4716666666666667}, {"type": "position", "time": 17565, "x": null, "y": 0.4716666666666667}, {"type": "position", "time": 17612, "x": null, "y": 0.4716666666666667}, {"type": "position", "time": 17661, "x": null, "y": 0.4666666666666667}, {"type": "position", "time": 17708, "x": null, "y": 0.4633333333333333}, {"type": "position", "time": 17757, "x": null, "y": 0.4583333333333333}, {"type": "position", "time": 17807, "x": null, "y": 0.455}, {"type": "position", "time": 17858, "x": null, "y": 0.455}, {"type": "position", "time": 17907, "x": null, "y": 0.455}, {"type": "position", "time": 17957, "x": null, "y": 0.4583333333333333}, {"type": "position", "time": 18017, "x": null, "y": 0.4583333333333333}, {"type": "position", "time": 18064, "x": null, "y": 0.4583333333333333}, {"type": "position", "time": 18111, "x": null, "y": 0.4583333333333333}, {"type": "position", "time": 18158, "x": null, "y": 0.4583333333333333}, {"type": "position", "time": 18220, "x": null, "y": 0.4583333333333333}, {"type": "position", "time": 18267, "x": null, "y": 0.4583333333333333}, {"type": "position", "time": 18314, "x": null, "y": 0.4583333333333333}, {"type": "position", "time": 18361, "x": null, "y": 0.4583333333333333}, {"type": "position", "time": 18407, "x": null, "y": 0.4583333333333333}, {"type": "position", "time": 18457, "x": null, "y": 0.4583333333333333}, {"type": "position", "time": 18519, "x": null, "y": 0.735}, {"type": "position", "time": 18566, "x": null, "y": 0.735}, {"type": "position", "time": 18613, "x": null, "y": 0.735}, {"type": "position", "time": 18660, "x": null, "y": 0.735}, {"type": "position", "time": 18707, "x": null, "y": 0.735}, {"type": "position", "time": 18769, "x": null, "y": 0.735}, {"type": "position", "time": 18816, "x": null, "y": 0.735}, {"type": "position", "time": 18863, "x": null, "y": 0.735}, {"type": "position", "time": 18914, "x": null, "y": 0.7333333333333333}, {"type": "position", "time": 18964, "x": null, "y": 0.7133333333333334}, {"type": "position", "time": 19010, "x": null, "y": 0.66}, {"type": "position", "time": 19062, "x": null, "y": 0.6183333333333333}, {"type": "position", "time": 19112, "x": null, "y": 0.6033333333333334}, {"type": "position", "time": 19157, "x": null, "y": 0.6016666666666667}, {"type": "position", "time": 19219, "x": null, "y": 0.6016666666666667}, {"type": "position", "time": 19258, "x": null, "y": 0.5966666666666667}, {"type": "position", "time": 19320, "x": null, "y": 0.585}, {"type": "position", "time": 19446, "x": null, "y": 0.5833333333333334}, {"type": "position", "time": 19459, "x": null, "y": 0.5816666666666667}, {"type": "position", "time": 19507, "x": null, "y": 0.5866666666666667}, {"type": "position", "time": 19575, "x": null, "y": 0.5866666666666667}, {"type": "position", "time": 19613, "x": null, "y": 0.5883333333333334}, {"type": "position", "time": 19657, "x": null, "y": 0.5883333333333334}, {"type": "position", "time": 19707, "x": null, "y": 0.5883333333333334}, {"type": "position", "time": 19757, "x": null, "y": 0.59}, {"type": "position", "time": 19822, "x": null, "y": 0.5916666666666667}, {"type": "position", "time": 19857, "x": null, "y": 0.5916666666666667}, {"type": "slider", "time": 19922, "value": 0.76}, {"type": "position", "time": 19933, "x": null, "y": 0.5916666666666667}, {"type": "position", "time": 19957, "x": null, "y": 0.5916666666666667}, {"type": "position", "time": 20010, "x": null, "y": 0.5916666666666667}, {"type": "click", "time": 20036, "x": null, "y": 0.5916666666666667}, {"type": "position", "time": 20057, "x": null, "y": 0.5916666666666667}, {"type": "position", "time": 20108, "x": null, "y": 0.5933333333333334}, {"type": "position", "time": 20169, "x": null, "y": 0.6316666666666667}, {"type": "position", "time": 20213, "x": null, "y": 0.67}, {"type": "position", "time": 20258, "x": null, "y": 0.675}, {"type": "position", "time": 20384, "x": null, "y": 0.6766666666666666}, {"type": "position", "time": 20411, "x": null, "y": 0.6983333333333334}, {"type": "position", "time": 20468, "x": null, "y": 0.7116666666666667}, {"type": "position", "time": 20507, "x": null, "y": 0.7133333333333334}, {"type": "position", "time": 20569, "x": null, "y": 0.7133333333333334}, {"type": "position", "time": 20615, "x": null, "y": 0.7133333333333334}, {"type": "position", "time": 20657, "x": null, "y": 0.7166666666666667}, {"type": "position", "time": 20718, "x": null, "y": 0.7166666666666667}, {"type": "position", "time": 20765, "x": null, "y": 0.7166666666666667}, {"type": "position", "time": 20812, "x": null, "y": 0.7166666666666667}, {"type": "position", "time": 20859, "x": null, "y": 0.7166666666666667}, {"type": "position", "time": 20921, "x": null, "y": 0.7166666666666667}, {"type": "position", "time": 20969, "x": null, "y": 0.7166666666666667}, {"type": "position", "time": 21015, "x": null, "y": 0.7166666666666667}, {"type": "position", "time": 21062, "x": null, "y": 0.7166666666666667}, {"type": "position", "time": 21109, "x": null, "y": 0.7166666666666667}, {"type": "position", "time": 21172, "x": null, "y": 0.7166666666666667}, {"type": "position", "time": 21219, "x": null, "y": 0.7166666666666667}, {"type": "position", "time": 21265, "x": null, "y": 0.7166666666666667}, {"type": "position", "time": 21381, "x": null, "y": 0.7166666666666667}, {"type": "position", "time": 21407, "x": null, "y": 0.7166666666666667}, {"type": "position", "time": 21458, "x": null, "y": 0.7166666666666667}, {"type": "position", "time": 21507, "x": null, "y": 0.7166666666666667}, {"type": "position", "time": 21559, "x": null, "y": 0.7166666666666667}, {"type": "position", "time": 21622, "x": null, "y": 0.7166666666666667}, {"type": "position", "time": 21669, "x": null, "y": 0.7166666666666667}, {"type": "position", "time": 21716, "x": null, "y": 0.7166666666666667}, {"type": "position", "time": 21763, "x": null, "y": 0.7166666666666667}, {"type": "position", "time": 21809, "x": null, "y": 0.7166666666666667}, {"type": "position", "time": 21872, "x": null, "y": 0.7166666666666667}, {"type": "position", "time": 22309, "x": null, "y": 0.7166666666666667}, {"type": "click", "time": 22348, "x": null, "y": 0.7166666666666667}, {"type": "position", "time": 22363, "x": null, "y": 0.7133333333333334}, {"type": "position", "time": 22407, "x": null, "y": 0.7133333333333334}, {"type": "position", "time": 22461, "x": null, "y": 0.7133333333333334}, {"type": "position", "time": 22507, "x": null, "y": 0.7133333333333334}, {"type": "position", "time": 22559, "x": null, "y": 0.7133333333333334}, {"type": "position", "time": 22621, "x": null, "y": 0.7133333333333334}, {"type": "position", "time": 22668, "x": null, "y": 0.7133333333333334}, {"type": "position", "time": 22715, "x": null, "y": 0.7133333333333334}, {"type": "position", "time": 22762, "x": null, "y": 0.7133333333333334}, {"type": "position", "time": 22809, "x": null, "y": 0.7133333333333334}, {"type": "position", "time": 22871, "x": null, "y": 0.7133333333333334}, {"type": "position", "time": 22918, "x": null, "y": 0.7133333333333334}, {"type": "position", "time": 22965, "x": null, "y": 0.7133333333333334}, {"type": "position", "time": 23012, "x": null, "y": 0.7133333333333334}, {"type": "position", "time": 23059, "x": null, "y": 0.7133333333333334}, {"type": "position", "time": 23121, "x": null, "y": 0.7133333333333334}, {"type": "position", "time": 23168, "x": null, "y": 0.7133333333333334}, {"type": "position", "time": 23215, "x": null, "y": 0.7133333333333334}, {"type": "position", "time": 23262, "x": null, "y": 0.7133333333333334}, {"type": "position", "time": 23309, "x": null, "y": 0.7133333333333334}, {"type": "position", "time": 23371, "x": null, "y": 0.7133333333333334}, {"type": "position", "time": 23418, "x": null, "y": 0.7133333333333334}, {"type": "position", "time": 23465, "x": null, "y": 0.7133333333333334}, {"type": "position", "time": 23507, "x": null, "y": 0.7133333333333334}, {"type": "position", "time": 23560, "x": null, "y": 0.7133333333333334}, {"type": "position", "time": 23607, "x": null, "y": 0.7133333333333334}, {"type": "position", "time": 23669, "x": null, "y": 0.7133333333333334}, {"type": "position", "time": 23716, "x": null, "y": 0.7133333333333334}, {"type": "position", "time": 23763, "x": null, "y": 0.7133333333333334}, {"type": "position", "time": 23810, "x": null, "y": 0.7133333333333334}, {"type": "position", "time": 23857, "x": null, "y": 0.7133333333333334}, {"type": "position", "time": 23919, "x": null, "y": 0.7133333333333334}, {"type": "position", "time": 23966, "x": null, "y": 0.7133333333333334}, {"type": "position", "time": 24013, "x": null, "y": 0.7133333333333334}, {"type": "position", "time": 24060, "x": null, "y": 0.7133333333333334}, {"type": "position", "time": 24107, "x": null, "y": 0.7133333333333334}, {"type": "position", "time": 24169, "x": null, "y": 0.7133333333333334}, {"type": "position", "time": 24216, "x": null, "y": 0.7133333333333334}, {"type": "position", "time": 24263, "x": null, "y": 0.7133333333333334}, {"type": "position", "time": 24310, "x": null, "y": 0.7133333333333334}, {"type": "position", "time": 24357, "x": null, "y": 0.7133333333333334}, {"type": "position", "time": 24419, "x": null, "y": 0.7133333333333334}, {"type": "position", "time": 24466, "x": null, "y": 0.7133333333333334}, {"type": "position", "time": 24507, "x": null, "y": 0.7133333333333334}, {"type": "position", "time": 24567, "x": null, "y": 0.7133333333333334}, {"type": "position", "time": 24614, "x": null, "y": 0.7133333333333334}, {"type": "position", "time": 24661, "x": null, "y": 0.7133333333333334}, {"type": "position", "time": 24708, "x": null, "y": 0.7133333333333334}, {"type": "position", "time": 24770, "x": null, "y": 0.7133333333333334}, {"type": "position", "time": 24817, "x": null, "y": 0.7133333333333334}, {"type": "position", "time": 24864, "x": null, "y": 0.7133333333333334}, {"type": "position", "time": 24911, "x": null, "y": 0.7133333333333334}, {"type": "position", "time": 24958, "x": null, "y": 0.7133333333333334}, {"type": "position", "time": 25020, "x": null, "y": 0.7133333333333334}, {"type": "position", "time": 25067, "x": null, "y": 0.7133333333333334}, {"type": "position", "time": 25114, "x": null, "y": 0.7133333333333334}, {"type": "position", "time": 25161, "x": null, "y": 0.7133333333333334}, {"type": "position", "time": 25208, "x": null, "y": 0.7133333333333334}, {"type": "position", "time": 25270, "x": null, "y": 0.7133333333333334}, {"type": "position", "time": 25317, "x": null, "y": 0.7133333333333334}, {"type": "position", "time": 25364, "x": null, "y": 0.7133333333333334}, {"type": "position", "time": 25411, "x": null, "y": 0.7133333333333334}, {"type": "position", "time": 25458, "x": null, "y": 0.7133333333333334}, {"type": "position", "time": 25507, "x": null, "y": 0.7133333333333334}, {"type": "position", "time": 25560, "x": null, "y": 0.7133333333333334}, {"type": "position", "time": 25607, "x": null, "y": 0.7133333333333334}, {"type": "position", "time": 25670, "x": null, "y": 0.7133333333333334}, {"type": "position", "time": 25716, "x": null, "y": 0.7133333333333334}, {"type": "position", "time": 25763, "x": null, "y": 0.7133333333333334}, {"type": "position", "time": 25810, "x": null, "y": 0.7133333333333334}, {"type": "position", "time": 25857, "x": null, "y": 0.7133333333333334}, {"type": "position", "time": 25919, "x": null, "y": 0.7133333333333334}, {"type": "position", "time": 25966, "x": null, "y": 0.7133333333333334}, {"type": "position", "time": 26013, "x": null, "y": 0.7133333333333334}, {"type": "position", "time": 26060, "x": null, "y": 0.7133333333333334}, {"type": "position", "time": 26107, "x": null, "y": 0.7133333333333334}, {"type": "position", "time": 26170, "x": null, "y": 0.7133333333333334}, {"type": "position", "time": 26216, "x": null, "y": 0.7133333333333334}, {"type": "position", "time": 26263, "x": null, "y": 0.7133333333333334}, {"type": "position", "time": 26310, "x": null, "y": 0.7133333333333334}, {"type": "position", "time": 26357, "x": null, "y": 0.7133333333333334}, {"type": "position", "time": 26420, "x": null, "y": 0.7133333333333334}, {"type": "position", "time": 26466, "x": null, "y": 0.7133333333333334}, {"type": "position", "time": 26507, "x": null, "y": 0.7133333333333334}, {"type": "position", "time": 26560, "x": null, "y": 0.7133333333333334}, {"type": "position", "time": 26607, "x": null, "y": 0.7133333333333334}, {"type": "position", "time": 26670, "x": null, "y": 0.7133333333333334}, {"type": "position", "time": 26717, "x": null, "y": 0.7133333333333334}, {"type": "position", "time": 26763, "x": null, "y": 0.7133333333333334}, {"type": "position", "time": 26810, "x": null, "y": 0.7133333333333334}, {"type": "position", "time": 26857, "x": null, "y": 0.7133333333333334}, {"type": "position", "time": 26912, "x": null, "y": 0.7116666666666667}, {"type": "position", "time": 26962, "x": null, "y": 0.6983333333333334}, {"type": "position", "time": 27012, "x": null, "y": 0.6333333333333333}, {"type": "position", "time": 27062, "x": null, "y": 0.555}, {"type": "position", "time": 27107, "x": null, "y": 0.5383333333333333}, {"type": "position", "time": 27157, "x": null, "y": 0.535}, {"type": "position", "time": 27215, "x": null, "y": 0.52}, {"type": "position", "time": 27257, "x": null, "y": 0.5133333333333333}, {"type": "position", "time": 27314, "x": null, "y": 0.525}, {"type": "position", "time": 27357, "x": null, "y": 0.525}, {"type": "position", "time": 27417, "x": null, "y": 0.525}, {"type": "position", "time": 27464, "x": null, "y": 0.525}, {"type": "position", "time": 27507, "x": null, "y": 0.525}, {"type": "position", "time": 27560, "x": null, "y": 0.525}, {"type": "position", "time": 27607, "x": null, "y": 0.525}, {"type": "position", "time": 27670, "x": null, "y": 0.525}, {"type": "position", "time": 27716, "x": null, "y": 0.525}, {"type": "position", "time": 27763, "x": null, "y": 0.525}, {"type": "position", "time": 27810, "x": null, "y": 0.525}, {"type": "position", "time": 27857, "x": null, "y": 0.525}, {"type": "position", "time": 27919, "x": null, "y": 0.525}, {"type": "position", "time": 27966, "x": null, "y": 0.525}, {"type": "position", "time": 28013, "x": null, "y": 0.525}, {"type": "position", "time": 28060, "x": null, "y": 0.525}, {"type": "position", "time": 28107, "x": null, "y": 0.525}, {"type": "position", "time": 28157, "x": null, "y": 0.525}, {"type": "position", "time": 28209, "x": null, "y": 0.525}, {"type": "position", "time": 28272, "x": null, "y": 0.525}, {"type": "click", "time": 28287, "x": null, "y": 0.525}, {"type": "position", "time": 28429, "x": null, "y": 0.525}, {"type": "position", "time": 28461, "x": null, "y": 0.5383333333333333}, {"type": "position", "time": 28522, "x": null, "y": 0.5583333333333333}, {"type": "position", "time": 28560, "x": null, "y": 0.56}, {"type": "position", "time": 28607, "x": null, "y": 0.56}, {"type": "position", "time": 28660, "x": null, "y": 0.56}, {"type": "position", "time": 28707, "x": null, "y": 0.56}, {"type": "position", "time": 28759, "x": null, "y": 0.56}, {"type": "position", "time": 28821, "x": null, "y": 0.56}, {"type": "position", "time": 28868, "x": null, "y": 0.56}, {"type": "position", "time": 28915, "x": null, "y": 0.56}, {"type": "position", "time": 28962, "x": null, "y": 0.56}, {"type": "position", "time": 29009, "x": null, "y": 0.56}, {"type": "position", "time": 29071, "x": null, "y": 0.56}, {"type": "position", "time": 29118, "x": null, "y": 0.56}, {"type": "position", "time": 29165, "x": null, "y": 0.56}, {"type": "position", "time": 29207, "x": null, "y": 0.56}, {"type": "position", "time": 29260, "x": null, "y": 0.56}, {"type": "position", "time": 29369, "x": null, "y": 0.56}, {"type": "position", "time": 29421, "x": null, "y": 0.56}, {"type": "position", "time": 29468, "x": null, "y": 0.56}, {"type": "position", "time": 29516, "x": null, "y": 0.56}, {"type": "position", "time": 29557, "x": null, "y": 0.56}, {"type": "position", "time": 29617, "x": null, "y": 0.56}, {"type": "position", "time": 29664, "x": null, "y": 0.56}, {"type": "position", "time": 29711, "x": null, "y": 0.56}, {"type": "position", "time": 29757, "x": null, "y": 0.56}, {"type": "position", "time": 29809, "x": null, "y": 0.56}, {"type": "position", "time": 29872, "x": null, "y": 0.56}, {"type": "position", "time": 29918, "x": null, "y": 0.56}, {"type": "position", "time": 29965, "x": null, "y": 0.56}, {"type": "position", "time": 30012, "x": null, "y": 0.56}, {"type": "position", "time": 30059, "x": null, "y": 0.56}, {"type": "position", "time": 30121, "x": null, "y": 0.56}, {"type": "position", "time": 30168, "x": null, "y": 0.56}, {"type": "position", "time": 30215, "x": null, "y": 0.56}, {"type": "position", "time": 30257, "x": null, "y": 0.56}, {"type": "position", "time": 30365, "x": null, "y": 0.56}, {"type": "position", "time": 30412, "x": null, "y": 0.56}, {"type": "position", "time": 30459, "x": null, "y": 0.56}, {"type": "position", "time": 30522, "x": null, "y": 0.56}, {"type": "position", "time": 30557, "x": null, "y": 0.56}, {"type": "position", "time": 30618, "x": null, "y": 0.56}, {"type": "position", "time": 30665, "x": null, "y": 0.56}, {"type": "position", "time": 30711, "x": null, "y": 0.56}, {"type": "position", "time": 30758, "x": null, "y": 0.56}, {"type": "position", "time": 30807, "x": null, "y": 0.56}, {"type": "position", "time": 30859, "x": null, "y": 0.56}, {"type": "position", "time": 31281, "x": null, "y": 0.56}, {"type": "position", "time": 31307, "x": null, "y": 0.56}, {"type": "position", "time": 31361, "x": null, "y": 0.56}, {"type": "position", "time": 31408, "x": null, "y": 0.56}, {"type": "position", "time": 31470, "x": null, "y": 0.56}, {"type": "position", "time": 31517, "x": null, "y": 0.56}, {"type": "position", "time": 31557, "x": null, "y": 0.56}, {"type": "position", "time": 31619, "x": null, "y": 0.56}, {"type": "position", "time": 31666, "x": null, "y": 0.56}, {"type": "position", "time": 31713, "x": null, "y": 0.56}, {"type": "position", "time": 31760, "x": null, "y": 0.56}, {"type": "position", "time": 31807, "x": null, "y": 0.56}, {"type": "position", "time": 31857, "x": null, "y": 0.56}, {"type": "position", "time": 31917, "x": null, "y": 0.56}, {"type": "position", "time": 31964, "x": null, "y": 0.56}, {"type": "position", "time": 32011, "x": null, "y": 0.56}, {"type": "position", "time": 32058, "x": null, "y": 0.56}, {"type": "position", "time": 32120, "x": null, "y": 0.56}, {"type": "position", "time": 32167, "x": null, "y": 0.56}, {"type": "position", "time": 32214, "x": null, "y": 0.56}, {"type": "position", "time": 32261, "x": null, "y": 0.56}, {"type": "position", "time": 32308, "x": null, "y": 0.56}, {"type": "position", "time": 32370, "x": null, "y": 0.56}, {"type": "position", "time": 32407, "x": null, "y": 0.56}, {"type": "position", "time": 32467, "x": null, "y": 0.56}, {"type": "position", "time": 32513, "x": null, "y": 0.56}, {"type": "position", "time": 32557, "x": null, "y": 0.56}, {"type": "position", "time": 32619, "x": null, "y": 0.56}, {"type": "position", "time": 32693, "x": null, "y": 0.56}, {"type": "keyup", "time": 32701, "key": "H", "keyCode": 72}, {"type": "position", "time": 32707, "x": null, "y": 0.56}, {"type": "position", "time": 32757, "x": null, "y": 0.56}, {"type": "position", "time": 32807, "x": null, "y": 0.56}, {"type": "keyup", "time": 32809, "key": "E", "keyCode": 69}, {"type": "position", "time": 32860, "x": null, "y": 0.56}, {"type": "keyup", "time": 32860, "key": "R", "keyCode": 82}, {"type": "position", "time": 32907, "x": null, "y": 0.56}, {"type": "position", "time": 32957, "x": null, "y": 0.56}, {"type": "keyup", "time": 32984, "key": " ", "keyCode": 32}, {"type": "position", "time": 33016, "x": null, "y": 0.56}, {"type": "position", "time": 33062, "x": null, "y": 0.56}, {"type": "position", "time": 33109, "x": null, "y": 0.56}, {"type": "position", "time": 33172, "x": null, "y": 0.56}, {"type": "position", "time": 33219, "x": null, "y": 0.56}, {"type": "position", "time": 33266, "x": null, "y": 0.56}, {"type": "position", "time": 33313, "x": null, "y": 0.56}, {"type": "position", "time": 33359, "x": null, "y": 0.56}, {"type": "position", "time": 33419, "x": null, "y": 0.56}, {"type": "keyup", "time": 33419, "key": "S", "keyCode": 83}, {"type": "position", "time": 33466, "x": null, "y": 0.56}, {"type": "position", "time": 33513, "x": null, "y": 0.56}, {"type": "position", "time": 33560, "x": null, "y": 0.56}, {"type": "position", "time": 33607, "x": null, "y": 0.56}, {"type": "keyup", "time": 33628, "key": "K", "keyCode": 75}, {"type": "position", "time": 33659, "x": null, "y": 0.56}, {"type": "position", "time": 33722, "x": null, "y": 0.56}, {"type": "position", "time": 33759, "x": null, "y": 0.56}, {"type": "position", "time": 33807, "x": null, "y": 0.56}, {"type": "keyup", "time": 33811, "key": "I", "keyCode": 73}, {"type": "position", "time": 33858, "x": null, "y": 0.56}, {"type": "position", "time": 33921, "x": null, "y": 0.56}, {"type": "position", "time": 33957, "x": null, "y": 0.56}, {"type": "keyup", "time": 34002, "key": "N", "keyCode": 78}, {"type": "position", "time": 34018, "x": null, "y": 0.56}, {"type": "position", "time": 34057, "x": null, "y": 0.56}, {"type": "position", "time": 34107, "x": null, "y": 0.56}, {"type": "keyup", "time": 34153, "key": " ", "keyCode": 32}, {"type": "position", "time": 34168, "x": null, "y": 0.56}, {"type": "position", "time": 34207, "x": null, "y": 0.56}, {"type": "position", "time": 34261, "x": null, "y": 0.56}, {"type": "keyup", "time": 34276, "key": "W", "keyCode": 87}, {"type": "position", "time": 34307, "x": null, "y": 0.56}, {"type": "position", "time": 34370, "x": null, "y": 0.56}, {"type": "position", "time": 34407, "x": null, "y": 0.56}, {"type": "position", "time": 34466, "x": null, "y": 0.56}, {"type": "keyup", "time": 34496, "key": "A", "keyCode": 65}, {"type": "position", "time": 34507, "x": null, "y": 0.56}, {"type": "position", "time": 34558, "x": null, "y": 0.56}, {"type": "keyup", "time": 34580, "key": "S", "keyCode": 83}, {"type": "position", "time": 34607, "x": null, "y": 0.56}, {"type": "position", "time": 34667, "x": null, "y": 0.56}, {"type": "position", "time": 34714, "x": null, "y": 0.56}, {"type": "position", "time": 34761, "x": null, "y": 0.56}, {"type": "position", "time": 34808, "x": null, "y": 0.56}, {"type": "position", "time": 34870, "x": null, "y": 0.56}, {"type": "position", "time": 34917, "x": null, "y": 0.56}, {"type": "position", "time": 34964, "x": null, "y": 0.56}, {"type": "position", "time": 35007, "x": null, "y": 0.56}, {"type": "position", "time": 35060, "x": null, "y": 0.56}, {"type": "position", "time": 35107, "x": null, "y": 0.56}, {"type": "position", "time": 35169, "x": null, "y": 0.56}, {"type": "position", "time": 35220, "x": null, "y": 0.56}, {"type": "position", "time": 35257, "x": null, "y": 0.56}, {"type": "keyup", "time": 35301, "key": " ", "keyCode": 32}, {"type": "position", "time": 35316, "x": null, "y": 0.56}, {"type": "position", "time": 35363, "x": null, "y": 0.56}, {"type": "position", "time": 35420, "x": null, "y": 0.56}, {"type": "position", "time": 35457, "x": null, "y": 0.56}, {"type": "position", "time": 35519, "x": null, "y": 0.56}, {"type": "keyup", "time": 35519, "key": "T", "keyCode": 84}, {"type": "position", "time": 35557, "x": null, "y": 0.56}, {"type": "position", "time": 35607, "x": null, "y": 0.56}, {"type": "keyup", "time": 35648, "key": "O", "keyCode": 79}, {"type": "position", "time": 35657, "x": null, "y": 0.56}, {"type": "keyup", "time": 35701, "key": "U", "keyCode": 85}, {"type": "position", "time": 35716, "x": null, "y": 0.56}, {"type": "position", "time": 35768, "x": null, "y": 0.56}, {"type": "position", "time": 35807, "x": null, "y": 0.56}, {"type": "keyup", "time": 35808, "key": "B", "keyCode": 66}, {"type": "keyup", "time": 35817, "key": "G", "keyCode": 71}, {"type": "position", "time": 35859, "x": null, "y": 0.56}, {"type": "position", "time": 35907, "x": null, "y": 0.56}, {"type": "keyup", "time": 35944, "key": "H", "keyCode": 72}, {"type": "position", "time": 35959, "x": null, "y": 0.56}, {"type": "position", "time": 36022, "x": null, "y": 0.56}, {"type": "position", "time": 36069, "x": null, "y": 0.56}, {"type": "position", "time": 36116, "x": null, "y": 0.56}, {"type": "position", "time": 36162, "x": null, "y": 0.56}, {"type": "position", "time": 36209, "x": null, "y": 0.56}, {"type": "position", "time": 36279, "x": null, "y": 0.56}, {"type": "position", "time": 36307, "x": null, "y": 0.56}, {"type": "keyup", "time": 36329, "key": "\b", "keyCode": 8}, {"type": "position", "time": 36360, "x": null, "y": 0.56}, {"type": "position", "time": 36407, "x": null, "y": 0.56}, {"type": "position", "time": 36472, "x": null, "y": 0.56}, {"type": "position", "time": 36507, "x": null, "y": 0.56}, {"type": "position", "time": 36566, "x": null, "y": 0.56}, {"type": "keyup", "time": 36566, "key": "\b", "keyCode": 8}, {"type": "position", "time": 36607, "x": null, "y": 0.56}, {"type": "position", "time": 36668, "x": null, "y": 0.56}, {"type": "position", "time": 36721, "x": null, "y": 0.56}, {"type": "position", "time": 36757, "x": null, "y": 0.56}, {"type": "keyup", "time": 36769, "key": "H", "keyCode": 72}, {"type": "position", "time": 36816, "x": null, "y": 0.56}, {"type": "position", "time": 36863, "x": null, "y": 0.56}, {"type": "position", "time": 36910, "x": null, "y": 0.56}, {"type": "position", "time": 36957, "x": null, "y": 0.56}, {"type": "position", "time": 37007, "x": null, "y": 0.56}, {"type": "keyup", "time": 37027, "key": "\t", "keyCode": 9}, {"type": "position", "time": 37059, "x": null, "y": 0.56}, {"type": "position", "time": 37121, "x": null, "y": 0.56}, {"type": "position", "time": 37168, "x": null, "y": 0.56}, {"type": "position", "time": 37215, "x": null, "y": 0.56}, {"type": "position", "time": 37262, "x": null, "y": 0.56}, {"type": "position", "time": 37309, "x": null, "y": 0.56}, {"type": "click", "time": 37432, "x": null, "y": 0.56}, {"type": "keyup", "time": 37435, "key": "\r", "keyCode": 13}, {"type": "position", "time": 37436, "x": null, "y": 0.56}, {"type": "position", "time": 37457, "x": null, "y": 0.56}, {"type": "position", "time": 37507, "x": null, "y": 0.56}, {"type": "position", "time": 37559, "x": null, "y": 0.56}, {"type": "position", "time": 37607, "x": null, "y": 0.56}, {"type": "position", "time": 37661, "x": null, "y": 0.56}, {"type": "position", "time": 37708, "x": null, "y": 0.56}, {"type": "position", "time": 37771, "x": null, "y": 0.56}, {"type": "position", "time": 37818, "x": null, "y": 0.56}, {"type": "position", "time": 37865, "x": null, "y": 0.56}, {"type": "position", "time": 37911, "x": null, "y": 0.56}, {"type": "position", "time": 37958, "x": null, "y": 0.56}, {"type": "position", "time": 38021, "x": null, "y": 0.56}, {"type": "position", "time": 38068, "x": null, "y": 0.56}, {"type": "position", "time": 38115, "x": null, "y": 0.56}, {"type": "position", "time": 38161, "x": null, "y": 0.56}, {"type": "position", "time": 38208, "x": null, "y": 0.56}, {"type": "position", "time": 38271, "x": null, "y": 0.56}, {"type": "position", "time": 38318, "x": null, "y": 0.56}, {"type": "position", "time": 38396, "x": null, "y": 0.56}, {"type": "position", "time": 38409, "x": null, "y": 0.56}, {"type": "position", "time": 38457, "x": null, "y": 0.56}, {"type": "position", "time": 38508, "x": null, "y": 0.56}, {"type": "position", "time": 38570, "x": null, "y": 0.56}, {"type": "position", "time": 38607, "x": null, "y": 0.56}, {"type": "position", "time": 38657, "x": null, "y": 0.56}, {"type": "position", "time": 38708, "x": null, "y": 0.56}, {"type": "position", "time": 38770, "x": null, "y": 0.56}, {"type": "position", "time": 38817, "x": null, "y": 0.56}, {"type": "position", "time": 38864, "x": null, "y": 0.56}, {"type": "position", "time": 38911, "x": null, "y": 0.56}, {"type": "position", "time": 38958, "x": null, "y": 0.56}, {"type": "position", "time": 39010, "x": null, "y": 0.57}, {"type": "position", "time": 39061, "x": null, "y": 0.6683333333333333}, {"type": "position", "time": 39111, "x": null, "y": 0.7016666666666667}, {"type": "position", "time": 39157, "x": null, "y": 0.7016666666666667}, {"type": "position", "time": 39211, "x": null, "y": 0.68}, {"type": "position", "time": 39264, "x": null, "y": 0.6783333333333333}, {"type": "position", "time": 39385, "x": null, "y": 0.6833333333333333}, {"type": "position", "time": 39407, "x": null, "y": 0.6833333333333333}, {"type": "position", "time": 39461, "x": null, "y": 0.6866666666666666}, {"type": "position", "time": 39511, "x": null, "y": 0.695}, {"type": "position", "time": 39561, "x": null, "y": 0.6983333333333334}, {"type": "position", "time": 39619, "x": null, "y": 0.695}, {"type": "position", "time": 39661, "x": null, "y": 0.695}, {"type": "position", "time": 39707, "x": null, "y": 0.695}, {"type": "position", "time": 39761, "x": null, "y": 0.6866666666666666}, {"type": "position", "time": 39812, "x": null, "y": 0.6883333333333334}, {"type": "position", "time": 39857, "x": null, "y": 0.6883333333333334}, {"type": "position", "time": 40362, "x": null, "y": 0.6883333333333334}, {"type": "position", "time": 40419, "x": null, "y": 0.7}, {"type": "position", "time": 40457, "x": null, "y": 0.695}, {"type": "position", "time": 40517, "x": null, "y": 0.695}, {"type": "slider", "time": 40560, "value": 0.69}, {"type": "position", "time": 40566, "x": null, "y": 0.695}, {"type": "position", "time": 40607, "x": null, "y": 0.695}, {"type": "position", "time": 40668, "x": null, "y": 0.695}, {"type": "click", "time": 40691, "x": null, "y": 0.695}, {"type": "position", "time": 40709, "x": null, "y": 0.695}, {"type": "position", "time": 40763, "x": null, "y": 0.7133333333333334}, {"type": "position", "time": 40811, "x": null, "y": 0.7583333333333333}, {"type": "position", "time": 40862, "x": null, "y": 0.775}, {"type": "position", "time": 40907, "x": null, "y": 0.7816666666666666}, {"type": "position", "time": 40975, "x": null, "y": 0.7833333333333333}, {"type": "position", "time": 41007, "x": null, "y": 0.7883333333333333}, {"type": "position", "time": 41061, "x": null, "y": 0.7983333333333333}, {"type": "position", "time": 41107, "x": null, "y": 0.7983333333333333}, {"type": "position", "time": 41158, "x": null, "y": 0.7983333333333333}, {"type": "position", "time": 41209, "x": null, "y": 0.7983333333333333}, {"type": "click", "time": 41244, "x": null, "y": 0.7983333333333333}, {"type": "position", "time": 41265, "x": null, "y": 0.7983333333333333}, {"type": "position", "time": 41310, "x": null, "y": 0.8016666666666666}, {"type": "position", "time": 41362, "x": null, "y": 0.8066666666666666}, {"type": "position", "time": 41407, "x": null, "y": 0.81}, {"type": "position", "time": 41468, "x": null, "y": 0.81}, {"type": "position", "time": 41515, "x": null, "y": 0.81}, {"type": "position", "time": 41562, "x": null, "y": 0.81}, {"type": "position", "time": 41609, "x": null, "y": 0.81}, {"type": "position", "time": 41657, "x": null, "y": 0.81}, {"type": "position", "time": 41709, "x": null, "y": 0.81}, {"type": "position", "time": 41771, "x": null, "y": 0.81}, {"type": "position", "time": 41818, "x": null, "y": 0.81}, {"type": "position", "time": 41865, "x": null, "y": 0.81}, {"type": "position", "time": 41912, "x": null, "y": 0.81}, {"type": "position", "time": 41959, "x": null, "y": 0.81}, {"type": "position", "time": 42021, "x": null, "y": 0.81}, {"type": "position", "time": 42068, "x": null, "y": 0.81}, {"type": "position", "time": 42110, "x": null, "y": 0.805}, {"type": "position", "time": 42157, "x": null, "y": 0.8}, {"type": "position", "time": 42217, "x": null, "y": 0.8}, {"type": "position", "time": 42264, "x": null, "y": 0.7983333333333333}, {"type": "position", "time": 42311, "x": null, "y": 0.7883333333333333}, {"type": "position", "time": 42361, "x": null, "y": 0.775}, {"type": "position", "time": 42411, "x": null, "y": 0.7583333333333333}, {"type": "position", "time": 42457, "x": null, "y": 0.755}, {"type": "position", "time": 42507, "x": null, "y": 0.7533333333333333}, {"type": "position", "time": 42566, "x": null, "y": 0.7533333333333333}, {"type": "position", "time": 42613, "x": null, "y": 0.7533333333333333}, {"type": "position", "time": 42657, "x": null, "y": 0.7533333333333333}, {"type": "position", "time": 42710, "x": null, "y": 0.7533333333333333}, {"type": "position", "time": 42757, "x": null, "y": 0.7533333333333333}, {"type": "position", "time": 42819, "x": null, "y": 0.7533333333333333}, {"type": "position", "time": 42857, "x": null, "y": 0.7533333333333333}, {"type": "position", "time": 42911, "x": null, "y": 0.6833333333333333}, {"type": "position", "time": 42961, "x": null, "y": 0.56}, {"type": "position", "time": 43011, "x": null, "y": 0.52}, {"type": "position", "time": 43057, "x": null, "y": 0.5166666666666667}, {"type": "position", "time": 43107, "x": null, "y": 0.515}, {"type": "position", "time": 43167, "x": null, "y": 0.515}, {"type": "position", "time": 43214, "x": null, "y": 0.515}, {"type": "position", "time": 43261, "x": null, "y": 0.515}, {"type": "position", "time": 43315, "x": null, "y": 0.5133333333333333}, {"type": "position", "time": 43362, "x": null, "y": 0.5116666666666667}, {"type": "position", "time": 43411, "x": null, "y": 0.5383333333333333}, {"type": "position", "time": 43460, "x": null, "y": 0.5416666666666666}, {"type": "position", "time": 43507, "x": null, "y": 0.5416666666666666}, {"type": "position", "time": 43566, "x": null, "y": 0.5416666666666666}, {"type": "position", "time": 43613, "x": null, "y": 0.5416666666666666}, {"type": "position", "time": 43657, "x": null, "y": 0.5416666666666666}, {"type": "position", "time": 43717, "x": null, "y": 0.5416666666666666}, {"type": "position", "time": 43764, "x": null, "y": 0.5416666666666666}, {"type": "position", "time": 43811, "x": null, "y": 0.5416666666666666}, {"type": "position", "time": 43858, "x": null, "y": 0.5416666666666666}, {"type": "position", "time": 43920, "x": null, "y": 0.5416666666666666}, {"type": "position", "time": 43967, "x": null, "y": 0.5416666666666666}, {"type": "position", "time": 44014, "x": null, "y": 0.5416666666666666}, {"type": "position", "time": 44061, "x": null, "y": 0.5416666666666666}, {"type": "position", "time": 44108, "x": null, "y": 0.5416666666666666}, {"type": "position", "time": 44170, "x": null, "y": 0.5416666666666666}, {"type": "position", "time": 44217, "x": null, "y": 0.5416666666666666}, {"type": "position", "time": 44264, "x": null, "y": 0.5416666666666666}, {"type": "position", "time": 44311, "x": null, "y": 0.5416666666666666}, {"type": "position", "time": 44362, "x": null, "y": 0.5416666666666666}, {"type": "position", "time": 44418, "x": null, "y": 0.5416666666666666}, {"type": "position", "time": 44464, "x": null, "y": 0.5416666666666666}, {"type": "position", "time": 44511, "x": null, "y": 0.5416666666666666}, {"type": "position", "time": 44558, "x": null, "y": 0.5416666666666666}, {"type": "position", "time": 44621, "x": null, "y": 0.5416666666666666}, {"type": "position", "time": 44657, "x": null, "y": 0.5416666666666666}, {"type": "position", "time": 44710, "x": null, "y": 0.5416666666666666}, {"type": "position", "time": 44757, "x": null, "y": 0.5416666666666666}, {"type": "position", "time": 44819, "x": null, "y": 0.5416666666666666}, {"type": "position", "time": 44866, "x": null, "y": 0.5416666666666666}, {"type": "position", "time": 44913, "x": null, "y": 0.5416666666666666}, {"type": "position", "time": 44960, "x": null, "y": 0.5416666666666666}, {"type": "position", "time": 45007, "x": null, "y": 0.5416666666666666}, {"type": "position", "time": 45069, "x": null, "y": 0.5416666666666666}, {"type": "position", "time": 45116, "x": null, "y": 0.5416666666666666}, {"type": "position", "time": 45163, "x": null, "y": 0.5416666666666666}, {"type": "position", "time": 45210, "x": null, "y": 0.5416666666666666}, {"type": "position", "time": 45257, "x": null, "y": 0.5416666666666666}, {"type": "position", "time": 45319, "x": null, "y": 0.5416666666666666}, {"type": "position", "time": 45366, "x": null, "y": 0.5416666666666666}, {"type": "position", "time": 45413, "x": null, "y": 0.5416666666666666}, {"type": "position", "time": 45460, "x": null, "y": 0.5416666666666666}, {"type": "position", "time": 45507, "x": null, "y": 0.5416666666666666}, {"type": "position", "time": 45569, "x": null, "y": 0.5416666666666666}, {"type": "position", "time": 45616, "x": null, "y": 0.5416666666666666}, {"type": "position", "time": 45657, "x": null, "y": 0.5416666666666666}, {"type": "position", "time": 45707, "x": null, "y": 0.5416666666666666}, {"type": "position", "time": 45758, "x": null, "y": 0.5416666666666666}, {"type": "position", "time": 45820, "x": null, "y": 0.5416666666666666}, {"type": "position", "time": 45867, "x": null, "y": 0.5416666666666666}, {"type": "position", "time": 45914, "x": null, "y": 0.5416666666666666}, {"type": "position", "time": 45961, "x": null, "y": 0.5416666666666666}, {"type": "position", "time": 46008, "x": null, "y": 0.5416666666666666}, {"type": "position", "time": 46070, "x": null, "y": 0.5416666666666666}, {"type": "position", "time": 46117, "x": null, "y": 0.5416666666666666}, {"type": "position", "time": 46164, "x": null, "y": 0.5416666666666666}, {"type": "position", "time": 46211, "x": null, "y": 0.5416666666666666}, {"type": "position", "time": 46320, "x": null, "y": 0.5416666666666666}, {"type": "position", "time": 46367, "x": null, "y": 0.5416666666666666}, {"type": "position", "time": 46414, "x": null, "y": 0.5416666666666666}, {"type": "position", "time": 46461, "x": null, "y": 0.5416666666666666}, {"type": "position", "time": 46508, "x": null, "y": 0.5416666666666666}, {"type": "position", "time": 46570, "x": null, "y": 0.5416666666666666}, {"type": "position", "time": 46617, "x": null, "y": 0.5416666666666666}, {"type": "position", "time": 46657, "x": null, "y": 0.5416666666666666}, {"type": "position", "time": 46718, "x": null, "y": 0.5416666666666666}, {"type": "position", "time": 46764, "x": null, "y": 0.5416666666666666}, {"type": "position", "time": 46811, "x": null, "y": 0.5416666666666666}, {"type": "position", "time": 46858, "x": null, "y": 0.5416666666666666}, {"type": "position", "time": 46922, "x": null, "y": 0.54}, {"type": "position", "time": 46962, "x": null, "y": 0.5366666666666666}, {"type": "position", "time": 47007, "x": null, "y": 0.5366666666666666}, {"type": "position", "time": 47061, "x": null, "y": 0.5383333333333333}, {"type": "position", "time": 47111, "x": null, "y": 0.5566666666666666}, {"type": "position", "time": 47161, "x": null, "y": 0.585}, {"type": "position", "time": 47210, "x": null, "y": 0.5933333333333334}, {"type": "position", "time": 47257, "x": null, "y": 0.5933333333333334}, {"type": "position", "time": 47394, "x": null, "y": 0.5933333333333334}, {"type": "position", "time": 47407, "x": null, "y": 0.5933333333333334}, {"type": "position", "time": 47469, "x": null, "y": 0.595}, {"type": "position", "time": 47513, "x": null, "y": 0.6216666666666667}, {"type": "position", "time": 47562, "x": null, "y": 0.63}, {"type": "position", "time": 47607, "x": null, "y": 0.63}, {"type": "position", "time": 47657, "x": null, "y": 0.63}, {"type": "position", "time": 47718, "x": null, "y": 0.63}, {"type": "position", "time": 47765, "x": null, "y": 0.6216666666666667}, {"type": "position", "time": 47811, "x": null, "y": 0.6083333333333333}, {"type": "position", "time": 47861, "x": null, "y": 0.6016666666666667}, {"type": "position", "time": 47907, "x": null, "y": 0.6016666666666667}, {"type": "position", "time": 47967, "x": null, "y": 0.6016666666666667}, {"type": "position", "time": 48007, "x": null, "y": 0.6}, {"type": "position", "time": 48068, "x": null, "y": 0.6}, {"type": "position", "time": 48111, "x": null, "y": 0.5933333333333334}, {"type": "position", "time": 48157, "x": null, "y": 0.59}, {"type": "position", "time": 48216, "x": null, "y": 0.59}, {"type": "slider", "time": 48251, "value": 0.7}, {"type": "position", "time": 48267, "x": null, "y": 0.59}, {"type": "click", "time": 48391, "x": null, "y": 0.59}, {"type": "position", "time": 48400, "x": null, "y": 0.59}, {"type": "position", "time": 48419, "x": null, "y": 0.5983333333333334}, {"type": "position", "time": 48459, "x": null, "y": 0.6316666666666667}, {"type": "position", "time": 48512, "x": null, "y": 0.6733333333333333}, {"type": "position", "time": 48561, "x": null, "y": 0.6866666666666666}, {"type": "position", "time": 48611, "x": null, "y": 0.7033333333333334}, {"type": "position", "time": 48657, "x": null, "y": 0.7083333333333334}, {"type": "position", "time": 48711, "x": null, "y": 0.7133333333333334}, {"type": "position", "time": 48757, "x": null, "y": 0.7133333333333334}, {"type": "position", "time": 48816, "x": null, "y": 0.7133333333333334}, {"type": "position", "time": 48863, "x": null, "y": 0.7133333333333334}, {"type": "position", "time": 49329, "x": null, "y": 0.715}, {"type": "position", "time": 49357, "x": null, "y": 0.71}, {"type": "position", "time": 49417, "x": null, "y": 0.71}, {"type": "position", "time": 49464, "x": null, "y": 0.71}, {"type": "position", "time": 49510, "x": null, "y": 0.71}, {"type": "position", "time": 49557, "x": null, "y": 0.71}, {"type": "position", "time": 49620, "x": null, "y": 0.71}, {"type": "position", "time": 49657, "x": null, "y": 0.71}, {"type": "position", "time": 49718, "x": null, "y": 0.71}, {"type": "position", "time": 49764, "x": null, "y": 0.71}, {"type": "position", "time": 49811, "x": null, "y": 0.71}, {"type": "position", "time": 49858, "x": null, "y": 0.71}, {"type": "position", "time": 49921, "x": null, "y": 0.71}, {"type": "position", "time": 49968, "x": null, "y": 0.71}, {"type": "position", "time": 50014, "x": null, "y": 0.71}, {"type": "position", "time": 50061, "x": null, "y": 0.71}, {"type": "position", "time": 50108, "x": null, "y": 0.71}, {"type": "position", "time": 50171, "x": null, "y": 0.71}, {"type": "position", "time": 50218, "x": null, "y": 0.71}, {"type": "position", "time": 50264, "x": null, "y": 0.71}, {"type": "position", "time": 50311, "x": null, "y": 0.71}, {"type": "position", "time": 50358, "x": null, "y": 0.71}, {"type": "position", "time": 50421, "x": null, "y": 0.71}, {"type": "position", "time": 50468, "x": null, "y": 0.71}, {"type": "position", "time": 50514, "x": null, "y": 0.71}, {"type": "position", "time": 50561, "x": null, "y": 0.71}, {"type": "position", "time": 50608, "x": null, "y": 0.71}, {"type": "position", "time": 50660, "x": null, "y": 0.71}, {"type": "position", "time": 50707, "x": null, "y": 0.71}, {"type": "position", "time": 50758, "x": null, "y": 0.71}, {"type": "position", "time": 50820, "x": null, "y": 0.71}, {"type": "position", "time": 50867, "x": null, "y": 0.71}, {"type": "position", "time": 50914, "x": null, "y": 0.71}, {"type": "position", "time": 50961, "x": null, "y": 0.71}, {"type": "position", "time": 51008, "x": null, "y": 0.71}, {"type": "position", "time": 51070, "x": null, "y": 0.71}, {"type": "position", "time": 51117, "x": null, "y": 0.71}, {"type": "position", "time": 51164, "x": null, "y": 0.71}, {"type": "position", "time": 51211, "x": null, "y": 0.71}, {"type": "position", "time": 51258, "x": null, "y": 0.71}, {"type": "position", "time": 51320, "x": null, "y": 0.71}, {"type": "position", "time": 51367, "x": null, "y": 0.71}, {"type": "position", "time": 51414, "x": null, "y": 0.71}, {"type": "position", "time": 51461, "x": null, "y": 0.71}, {"type": "position", "time": 51508, "x": null, "y": 0.71}, {"type": "position", "time": 51570, "x": null, "y": 0.71}, {"type": "position", "time": 51617, "x": null, "y": 0.71}, {"type": "position", "time": 51665, "x": null, "y": 0.71}, {"type": "position", "time": 51707, "x": null, "y": 0.71}, {"type": "position", "time": 51759, "x": null, "y": 0.71}, {"type": "position", "time": 51822, "x": null, "y": 0.71}, {"type": "position", "time": 51868, "x": null, "y": 0.71}, {"type": "position", "time": 51915, "x": null, "y": 0.71}, {"type": "position", "time": 51962, "x": null, "y": 0.71}, {"type": "position", "time": 52009, "x": null, "y": 0.71}, {"type": "position", "time": 52071, "x": null, "y": 0.71}, {"type": "position", "time": 52118, "x": null, "y": 0.71}, {"type": "position", "time": 52165, "x": null, "y": 0.71}, {"type": "position", "time": 52212, "x": null, "y": 0.71}, {"type": "position", "time": 52259, "x": null, "y": 0.71}, {"type": "position", "time": 52321, "x": null, "y": 0.71}, {"type": "position", "time": 52368, "x": null, "y": 0.71}, {"type": "position", "time": 52415, "x": null, "y": 0.71}, {"type": "position", "time": 52462, "x": null, "y": 0.71}, {"type": "position", "time": 52509, "x": null, "y": 0.71}, {"type": "position", "time": 52571, "x": null, "y": 0.71}, {"type": "position", "time": 52618, "x": null, "y": 0.71}, {"type": "position", "time": 52665, "x": null, "y": 0.71}, {"type": "position", "time": 52707, "x": null, "y": 0.71}, {"type": "position", "time": 52766, "x": null, "y": 0.71}, {"type": "position", "time": 52813, "x": null, "y": 0.71}, {"type": "position", "time": 52860, "x": null, "y": 0.71}, {"type": "position", "time": 52922, "x": null, "y": 0.71}, {"type": "position", "time": 52969, "x": null, "y": 0.71}, {"type": "position", "time": 53016, "x": null, "y": 0.71}, {"type": "position", "time": 53063, "x": null, "y": 0.71}, {"type": "position", "time": 53110, "x": null, "y": 0.71}, {"type": "position", "time": 53172, "x": null, "y": 0.71}, {"type": "position", "time": 53219, "x": null, "y": 0.71}, {"type": "position", "time": 53266, "x": null, "y": 0.71}, {"type": "position", "time": 53328, "x": null, "y": 0.71}, {"type": "position", "time": 53368, "x": null, "y": 0.71}, {"type": "position", "time": 53416, "x": null, "y": 0.71}, {"type": "position", "time": 53463, "x": null, "y": 0.71}, {"type": "position", "time": 53510, "x": null, "y": 0.71}, {"type": "position", "time": 53573, "x": null, "y": 0.71}, {"type": "position", "time": 53619, "x": null, "y": 0.71}, {"type": "position", "time": 53667, "x": null, "y": 0.71}, {"type": "position", "time": 53707, "x": null, "y": 0.71}, {"type": "position", "time": 53765, "x": null, "y": 0.71}, {"type": "position", "time": 53811, "x": null, "y": 0.71}, {"type": "position", "time": 53858, "x": null, "y": 0.71}, {"type": "position", "time": 53921, "x": null, "y": 0.71}, {"type": "position", "time": 53968, "x": null, "y": 0.71}, {"type": "position", "time": 54015, "x": null, "y": 0.71}, {"type": "position", "time": 54062, "x": null, "y": 0.71}, {"type": "position", "time": 54108, "x": null, "y": 0.71}, {"type": "position", "time": 54171, "x": null, "y": 0.71}, {"type": "position", "time": 54218, "x": null, "y": 0.71}, {"type": "position", "time": 54265, "x": null, "y": 0.71}, {"type": "position", "time": 54311, "x": null, "y": 0.71}, {"type": "position", "time": 54358, "x": null, "y": 0.71}, {"type": "position", "time": 54421, "x": null, "y": 0.71}, {"type": "position", "time": 54468, "x": null, "y": 0.71}, {"type": "position", "time": 54515, "x": null, "y": 0.71}, {"type": "position", "time": 54561, "x": null, "y": 0.71}, {"type": "position", "time": 54608, "x": null, "y": 0.71}, {"type": "position", "time": 54671, "x": null, "y": 0.71}, {"type": "position", "time": 54708, "x": null, "y": 0.71}, {"type": "position", "time": 54759, "x": null, "y": 0.71}, {"type": "position", "time": 54821, "x": null, "y": 0.71}, {"type": "position", "time": 54868, "x": null, "y": 0.71}, {"type": "position", "time": 54915, "x": null, "y": 0.71}, {"type": "position", "time": 54962, "x": null, "y": 0.71}, {"type": "position", "time": 55015, "x": null, "y": 0.7133333333333334}, {"type": "position", "time": 55061, "x": null, "y": 0.7483333333333333}, {"type": "position", "time": 55111, "x": null, "y": 0.7633333333333333}, {"type": "position", "time": 55162, "x": null, "y": 0.7783333333333333}, {"type": "position", "time": 55211, "x": null, "y": 0.7966666666666666}, {"type": "position", "time": 55265, "x": null, "y": 0.7983333333333333}, {"type": "position", "time": 55370, "x": null, "y": 0.7983333333333333}, {"type": "position", "time": 55408, "x": null, "y": 0.7983333333333333}, {"type": "position", "time": 55458, "x": null, "y": 0.7966666666666666}, {"type": "position", "time": 55512, "x": null, "y": 0.7816666666666666}, {"type": "position", "time": 55562, "x": null, "y": 0.77}, {"type": "position", "time": 55611, "x": null, "y": 0.77}, {"type": "position", "time": 55661, "x": null, "y": 0.7716666666666666}, {"type": "position", "time": 55708, "x": null, "y": 0.7716666666666666}, {"type": "position", "time": 55770, "x": null, "y": 0.7716666666666666}, {"type": "position", "time": 55811, "x": null, "y": 0.7683333333333333}, {"type": "position", "time": 55864, "x": null, "y": 0.765}, {"type": "position", "time": 55907, "x": null, "y": 0.7633333333333333}, {"type": "position", "time": 55962, "x": null, "y": 0.76}, {"type": "position", "time": 56011, "x": null, "y": 0.7566666666666667}, {"type": "position", "time": 56061, "x": null, "y": 0.7566666666666667}, {"type": "position", "time": 56107, "x": null, "y": 0.7566666666666667}, {"type": "position", "time": 56166, "x": null, "y": 0.7566666666666667}, {"type": "position", "time": 56213, "x": null, "y": 0.7566666666666667}, {"type": "position", "time": 56349, "x": null, "y": 0.7566666666666667}, {"type": "click", "time": 56352, "x": null, "y": 0.7566666666666667}, {"type": "position", "time": 56367, "x": null, "y": 0.7566666666666667}, {"type": "position", "time": 56408, "x": null, "y": 0.7566666666666667}, {"type": "position", "time": 56465, "x": null, "y": 0.7566666666666667}, {"type": "position", "time": 56514, "x": null, "y": 0.76}, {"type": "position", "time": 56561, "x": null, "y": 0.755}, {"type": "position", "time": 56608, "x": null, "y": 0.755}, {"type": "position", "time": 56668, "x": null, "y": 0.755}, {"type": "position", "time": 56710, "x": null, "y": 0.7483333333333333}, {"type": "position", "time": 56761, "x": null, "y": 0.705}, {"type": "position", "time": 56807, "x": null, "y": 0.7016666666666667}, {"type": "position", "time": 56868, "x": null, "y": 0.7016666666666667}, {"type": "position", "time": 56915, "x": null, "y": 0.7016666666666667}, {"type": "position", "time": 56962, "x": null, "y": 0.7016666666666667}, {"type": "position", "time": 57012, "x": null, "y": 0.7016666666666667}, {"type": "position", "time": 57061, "x": null, "y": 0.7016666666666667}, {"type": "position", "time": 57108, "x": null, "y": 0.7016666666666667}, {"type": "position", "time": 57167, "x": null, "y": 0.7016666666666667}, {"type": "position", "time": 57214, "x": null, "y": 0.7016666666666667}, {"type": "position", "time": 57261, "x": null, "y": 0.7016666666666667}, {"type": "position", "time": 57308, "x": null, "y": 0.7016666666666667}, {"type": "position", "time": 57370, "x": null, "y": 0.7016666666666667}, {"type": "position", "time": 57495, "x": null, "y": 0.7016666666666667}, {"type": "position", "time": 57508, "x": null, "y": 0.7016666666666667}, {"type": "position", "time": 57564, "x": null, "y": 0.7033333333333334}, {"type": "position", "time": 57607, "x": null, "y": 0.7083333333333334}, {"type": "position", "time": 57667, "x": null, "y": 0.7083333333333334}, {"type": "position", "time": 57707, "x": null, "y": 0.7083333333333334}, {"type": "position", "time": 57758, "x": null, "y": 0.7083333333333334}, {"type": "position", "time": 57808, "x": null, "y": 0.7083333333333334}, {"type": "position", "time": 57871, "x": null, "y": 0.7083333333333334}, {"type": "position", "time": 58298, "x": null, "y": 0.7083333333333334}, {"type": "position", "time": 58307, "x": null, "y": 0.7083333333333334}, {"type": "position", "time": 58369, "x": null, "y": 0.7083333333333334}, {"type": "position", "time": 58417, "x": null, "y": 0.7083333333333334}, {"type": "position", "time": 58463, "x": null, "y": 0.7083333333333334}, {"type": "position", "time": 58510, "x": null, "y": 0.7083333333333334}, {"type": "position", "time": 58573, "x": null, "y": 0.7083333333333334}, {"type": "position", "time": 58620, "x": null, "y": 0.7083333333333334}, {"type": "position", "time": 58666, "x": null, "y": 0.7083333333333334}, {"type": "position", "time": 58714, "x": null, "y": 0.7083333333333334}, {"type": "position", "time": 58757, "x": null, "y": 0.7083333333333334}, {"type": "position", "time": 58809, "x": null, "y": 0.7083333333333334}, {"type": "position", "time": 58872, "x": null, "y": 0.7083333333333334}, {"type": "position", "time": 58918, "x": null, "y": 0.7083333333333334}, {"type": "position", "time": 58965, "x": null, "y": 0.7083333333333334}, {"type": "position", "time": 59012, "x": null, "y": 0.7083333333333334}, {"type": "position", "time": 59059, "x": null, "y": 0.7083333333333334}, {"type": "position", "time": 59122, "x": null, "y": 0.7083333333333334}, {"type": "position", "time": 59168, "x": null, "y": 0.7083333333333334}, {"type": "position", "time": 59215, "x": null, "y": 0.7083333333333334}, {"type": "position", "time": 59262, "x": null, "y": 0.7083333333333334}, {"type": "position", "time": 59309, "x": null, "y": 0.7083333333333334}, {"type": "position", "time": 59371, "x": null, "y": 0.7083333333333334}, {"type": "position", "time": 59418, "x": null, "y": 0.7083333333333334}, {"type": "position", "time": 59465, "x": null, "y": 0.7083333333333334}, {"type": "position", "time": 59512, "x": null, "y": 0.7083333333333334}, {"type": "position", "time": 59559, "x": null, "y": 0.7083333333333334}, {"type": "position", "time": 59622, "x": null, "y": 0.7083333333333334}, {"type": "position", "time": 59668, "x": null, "y": 0.7083333333333334}, {"type": "position", "time": 59715, "x": null, "y": 0.7083333333333334}, {"type": "position", "time": 59758, "x": null, "y": 0.7083333333333334}, {"type": "position", "time": 59816, "x": null, "y": 0.7083333333333334}, {"type": "position", "time": 59862, "x": null, "y": 0.7083333333333334}, {"type": "position", "time": 59909, "x": null, "y": 0.7083333333333334}, {"type": "position", "time": 59972, "x": null, "y": 0.7083333333333334}, {"type": "position", "time": 60018, "x": null, "y": 0.7083333333333334}, {"type": "position", "time": 60066, "x": null, "y": 0.7083333333333334}, {"type": "position", "time": 60112, "x": null, "y": 0.7083333333333334}, {"type": "position", "time": 60159, "x": null, "y": 0.7083333333333334}, {"type": "position", "time": 60222, "x": null, "y": 0.7083333333333334}, {"type": "position", "time": 60269, "x": null, "y": 0.7083333333333334}, {"type": "position", "time": 60316, "x": null, "y": 0.7083333333333334}, {"type": "position", "time": 60366, "x": null, "y": 0.7083333333333334}, {"type": "position", "time": 60416, "x": null, "y": 0.7083333333333334}, {"type": "position", "time": 60457, "x": null, "y": 0.7083333333333334}, {"type": "position", "time": 60509, "x": null, "y": 0.7083333333333334}, {"type": "position", "time": 60572, "x": null, "y": 0.7083333333333334}, {"type": "position", "time": 60619, "x": null, "y": 0.7083333333333334}, {"type": "position", "time": 60665, "x": null, "y": 0.7083333333333334}, {"type": "position", "time": 60713, "x": null, "y": 0.7083333333333334}, {"type": "position", "time": 60757, "x": null, "y": 0.7083333333333334}, {"type": "position", "time": 60817, "x": null, "y": 0.7083333333333334}, {"type": "position", "time": 60864, "x": null, "y": 0.7083333333333334}, {"type": "position", "time": 60910, "x": null, "y": 0.7083333333333334}, {"type": "position", "time": 60973, "x": null, "y": 0.7083333333333334}, {"type": "position", "time": 61020, "x": null, "y": 0.7083333333333334}, {"type": "position", "time": 61066, "x": null, "y": 0.7083333333333334}, {"type": "position", "time": 61114, "x": null, "y": 0.7083333333333334}, {"type": "position", "time": 61160, "x": null, "y": 0.7083333333333334}, {"type": "position", "time": 61223, "x": null, "y": 0.7083333333333334}, {"type": "position", "time": 61270, "x": null, "y": 0.7083333333333334}, {"type": "position", "time": 61317, "x": null, "y": 0.7083333333333334}, {"type": "position", "time": 61363, "x": null, "y": 0.7083333333333334}, {"type": "position", "time": 61414, "x": null, "y": 0.7033333333333334}, {"type": "position", "time": 61458, "x": null, "y": 0.7016666666666667}, {"type": "position", "time": 61516, "x": null, "y": 0.7016666666666667}, {"type": "position", "time": 61563, "x": null, "y": 0.7016666666666667}, {"type": "position", "time": 61610, "x": null, "y": 0.7016666666666667}, {"type": "position", "time": 61673, "x": null, "y": 0.7016666666666667}, {"type": "position", "time": 61720, "x": null, "y": 0.7016666666666667}, {"type": "position", "time": 61757, "x": null, "y": 0.7016666666666667}, {"type": "position", "time": 61810, "x": null, "y": 0.7016666666666667}, {"type": "position", "time": 61872, "x": null, "y": 0.7016666666666667}, {"type": "position", "time": 61919, "x": null, "y": 0.7016666666666667}, {"type": "position", "time": 61966, "x": null, "y": 0.7033333333333334}, {"type": "position", "time": 62007, "x": null, "y": 0.7066666666666667}, {"type": "position", "time": 62066, "x": null, "y": 0.7066666666666667}, {"type": "position", "time": 62113, "x": null, "y": 0.7066666666666667}, {"type": "position", "time": 62160, "x": null, "y": 0.7066666666666667}, {"type": "position", "time": 62207, "x": null, "y": 0.7066666666666667}, {"type": "position", "time": 62271, "x": null, "y": 0.7066666666666667}, {"type": "position", "time": 62317, "x": null, "y": 0.7066666666666667}, {"type": "position", "time": 62364, "x": null, "y": 0.7066666666666667}, {"type": "position", "time": 62411, "x": null, "y": 0.7066666666666667}, {"type": "position", "time": 62458, "x": null, "y": 0.7066666666666667}, {"type": "position", "time": 62520, "x": null, "y": 0.7066666666666667}, {"type": "position", "time": 62567, "x": null, "y": 0.7066666666666667}, {"type": "position", "time": 62614, "x": null, "y": 0.7066666666666667}, {"type": "position", "time": 62657, "x": null, "y": 0.7066666666666667}, {"type": "position", "time": 62709, "x": null, "y": 0.7066666666666667}, {"type": "position", "time": 62757, "x": null, "y": 0.7066666666666667}, {"type": "click", "time": 62821, "x": null, "y": 0.7066666666666667}, {"type": "position", "time": 62833, "x": null, "y": 0.7066666666666667}, {"type": "position", "time": 62858, "x": null, "y": 0.7066666666666667}, {"type": "position", "time": 62917, "x": null, "y": 0.7066666666666667}, {"type": "position", "time": 62964, "x": null, "y": 0.7066666666666667}, {"type": "position", "time": 63010, "x": null, "y": 0.7066666666666667}, {"type": "position", "time": 63073, "x": null, "y": 0.7066666666666667}, {"type": "position", "time": 63120, "x": null, "y": 0.7066666666666667}, {"type": "position", "time": 63167, "x": null, "y": 0.7066666666666667}, {"type": "position", "time": 63213, "x": null, "y": 0.7066666666666667}, {"type": "position", "time": 63260, "x": null, "y": 0.7066666666666667}, {"type": "position", "time": 63323, "x": null, "y": 0.7066666666666667}, {"type": "position", "time": 63370, "x": null, "y": 0.7066666666666667}, {"type": "position", "time": 63417, "x": null, "y": 0.7066666666666667}, {"type": "position", "time": 63464, "x": null, "y": 0.7066666666666667}, {"type": "position", "time": 63510, "x": null, "y": 0.7066666666666667}, {"type": "position", "time": 63573, "x": null, "y": 0.7066666666666667}, {"type": "position", "time": 63620, "x": null, "y": 0.7066666666666667}, {"type": "position", "time": 6