{"ApprovalTime": "2016-03-10T21:10:27Z", "SubmitTime": "2016-03-10T21:09:37Z", "AssignmentId": "3I02618YA06TV7FBYFDPLTVNV5KUPP", "HITId": "38G0E1M85M53D7EEUOHN21OJ7HQVU5", "answers": {"data": {"trials": [{"story": "guitar", "time": 5614, "name": "Paul", "rt": 4434, "blocknum": 0, "qtype": "probability", "response": 0.56, "trialnum": 1, "gender": "male", "qnum": 0}, {"story": "guitar", "time": 5614, "name": "Paul", "rt": 4434, "blocknum": 0, "qtype": "ungrammatical", "trialnum": 1, "gender": "male", "qnum": 0}, {"story": "guitar", "time": 20603, "name": "Hannah", "rt": 14975, "blocknum": 0, "qtype": "explanation", "response": "She used guards.", "trialnum": 2, "gender": "female", "qnum": 1}, {"story": "guitar", "time": 24225, "name": "Hannah", "rt": 3591, "blocknum": 0, "qtype": "probability", "response": 0.5, "trialnum": 3, "gender": "female", "qnum": 2}, {"story": "guitar", "time": 24225, "name": "Hannah", "rt": 3591, "blocknum": 0, "qtype": "ungrammatical", "trialnum": 3, "gender": "female", "qnum": 2}, {"story": "guitar", "time": 35646, "name": "Jacqueline", "rt": 11407, "blocknum": 0, "qtype": "probability", "response": 0.5, "trialnum": 4, "gender": "female", "qnum": 3}, {"story": "guitar", "time": 35646, "name": "Jacqueline", "rt": 11407, "blocknum": 0, "qtype": "ungrammatical", "response": true, "trialnum": 4, "gender": "female", "qnum": 3}, {"story": "guitar", "time": 43644, "name": "James", "rt": 7980, "blocknum": 0, "qtype": "probability", "response": 0.55, "trialnum": 5, "gender": "male", "qnum": 4}, {"story": "guitar", "time": 43644, "name": "James", "rt": 7980, "blocknum": 0, "qtype": "ungrammatical", "response": false, "trialnum": 5, "gender": "male", "qnum": 4}, {"story": "guitar", "time": 46224, "name": "Corey", "rt": 2560, "blocknum": 0, "qtype": "probability", "response": 0.54, "trialnum": 6, "gender": "male", "qnum": 5}, {"story": "guitar", "time": 46224, "name": "Corey", "rt": 2560, "blocknum": 0, "qtype": "ungrammatical", "response": false, "trialnum": 6, "gender": "male", "qnum": 5}, {"story": "painting", "time": 50041, "name": "Danielle", "rt": 3805, "blocknum": 1, "qtype": "probability", "response": 0.52, "trialnum": 8, "gender": "female", "qnum": 0}, {"story": "painting", "time": 50041, "name": "Danielle", "rt": 3805, "blocknum": 1, "qtype": "ungrammatical", "trialnum": 8, "gender": "female", "qnum": 0}, {"story": "painting", "time": 55509, "name": "Brandon", "rt": 5462, "blocknum": 1, "qtype": "explanation", "response": "She has a smock on.", "trialnum": 9, "gender": "male", "qnum": 1}, {"story": "painting", "time": 62303, "name": "Brandon", "rt": 6782, "blocknum": 1, "qtype": "probability", "response": 0.52, "trialnum": 10, "gender": "male", "qnum": 2}, {"story": "painting", "time": 62303, "name": "Brandon", "rt": 6782, "blocknum": 1, "qtype": "ungrammatical", "trialnum": 10, "gender": "male", "qnum": 2}, {"story": "painting", "time": 65737, "name": "David", "rt": 3422, "blocknum": 1, "qtype": "probability", "response": 0.54, "trialnum": 11, "gender": "male", "qnum": 3}, {"story": "painting", "time": 65737, "name": "David", "rt": 3422, "blocknum": 1, "qtype": "ungrammatical", "response": false, "trialnum": 11, "gender": "male", "qnum": 3}, {"story": "painting", "time": 67371, "name": "Madison", "rt": 1624, "blocknum": 1, "qtype": "probability", "response": 0.51, "trialnum": 12, "gender": "female", "qnum": 4}, {"story": "painting", "time": 67371, "name": "Madison", "rt": 1624, "blocknum": 1, "qtype": "ungrammatical", "response": false, "trialnum": 12, "gender": "female", "qnum": 4}, {"story": "painting", "time": 69600, "name": "Brooke", "rt": 2216, "blocknum": 1, "qtype": "probability", "response": 0.52, "trialnum": 13, "gender": "female", "qnum": 5}, {"story": "painting", "time": 69600, "name": "Brooke", "rt": 2216, "blocknum": 1, "qtype": "ungrammatical", "response": false, "trialnum": 13, "gender": "female", "qnum": 5}, {"story": "coffee", "time": 83836, "name": "Adam", "rt": 14224, "blocknum": 2, "qtype": "probability", "response": 0.53, "trialnum": 15, "gender": "male", "qnum": 0}, {"story": "coffee", "time": 83836, "name": "Adam", "rt": 14224, "blocknum": 2, "qtype": "ungrammatical", "trialnum": 15, "gender": "male", "qnum": 0}, {"story": "coffee", "time": 91494, "name": "Ryan", "rt": 7652, "blocknum": 2, "qtype": "explanation", "response": "It was decaf.", "trialnum": 16, "gender": "male", "qnum": 1}, {"story": "coffee", "time": 93339, "name": "Ryan", "rt": 1838, "blocknum": 2, "qtype": "probability", "response": 0.48, "trialnum": 17, "gender": "male", "qnum": 2}, {"story": "coffee", "time": 93339, "name": "Ryan", "rt": 1838, "blocknum": 2, "qtype": "ungrammatical", "trialnum": 17, "gender": "male", "qnum": 2}, {"story": "coffee", "time": 95931, "name": "Abigail", "rt": 2575, "blocknum": 2, "qtype": "probability", "response": 0.49, "trialnum": 18, "gender": "female", "qnum": 3}, {"story": "coffee", "time": 95931, "name": "Abigail", "rt": 2575, "blocknum": 2, "qtype": "ungrammatical", "response": false, "trialnum": 18, "gender": "female", "qnum": 3}, {"story": "coffee", "time": 98033, "name": "Cassandra", "rt": 2088, "blocknum": 2, "qtype": "probability", "response": 0.45, "trialnum": 19, "gender": "female", "qnum": 4}, {"story": "coffee", "time": 98033, "name": "Cassandra", "rt": 2088, "blocknum": 2, "qtype": "ungrammatical", "response": false, "trialnum": 19, "gender": "female", "qnum": 4}, {"story": "coffee", "time": 100286, "name": "Jose", "rt": 2243, "blocknum": 2, "qtype": "probability", "response": 0.54, "trialnum": 20, "gender": "male", "qnum": 5}, {"story": "coffee", "time": 100286, "name": "Jose", "rt": 2243, "blocknum": 2, "qtype": "ungrammatical", "response": false, "trialnum": 20, "gender": "male", "qnum": 5}, {"story": "beach", "time": 106893, "name": "Hunter", "rt": 6594, "blocknum": 3, "qtype": "probability", "response": 0.46, "trialnum": 22, "gender": "male", "qnum": 0}, {"story": "beach", "time": 106893, "name": "Hunter", "rt": 6594, "blocknum": 3, "qtype": "ungrammatical", "trialnum": 22, "gender": "male", "qnum": 0}, {"story": "beach", "time": 112901, "name": "Cody", "rt": 6004, "blocknum": 3, "qtype": "explanation", "response": "He had sun block on.", "trialnum": 23, "gender": "male", "qnum": 1}, {"story": "beach", "time": 115756, "name": "Cody", "rt": 2842, "blocknum": 3, "qtype": "probability", "response": 0.46, "trialnum": 24, "gender": "male", "qnum": 2}, {"story": "beach", "time": 115756, "name": "Cody", "rt": 2842, "blocknum": 3, "qtype": "ungrammatical", "trialnum": 24, "gender": "male", "qnum": 2}, {"story": "beach", "time": 117596, "name": "Jason", "rt": 1831, "blocknum": 3, "qtype": "probability", "response": 0.47, "trialnum": 25, "gender": "male", "qnum": 3}, {"story": "beach", "time": 117596, "name": "Jason", "rt": 1831, "blocknum": 3, "qtype": "ungrammatical", "response": false, "trialnum": 25, "gender": "male", "qnum": 3}, {"story": "beach", "time": 125021, "name": "Alexis", "rt": 7418, "blocknum": 3, "qtype": "probability", "response": 0.48, "trialnum": 26, "gender": "female", "qnum": 4}, {"story": "beach", "time": 125021, "name": "Alexis", "rt": 7418, "blocknum": 3, "qtype": "ungrammatical", "response": false, "trialnum": 26, "gender": "female", "qnum": 4}, {"story": "beach", "time": 129729, "name": "Kaitlyn", "rt": 4698, "blocknum": 3, "qtype": "probability", "response": 0.52, "trialnum": 27, "gender": "female", "qnum": 5}, {"story": "beach", "time": 129729, "name": "Kaitlyn", "rt": 4698, "blocknum": 3, "qtype": "ungrammatical", "response": false, "trialnum": 27, "gender": "female", "qnum": 5}, {"story": "fitness", "time": 132092, "name": "Christian", "rt": 2350, "blocknum": 4, "qtype": "probability", "response": 0.49, "trialnum": 29, "gender": "male", "qnum": 0}, {"story": "fitness", "time": 132092, "name": "Christian", "rt": 2350, "blocknum": 4, "qtype": "ungrammatical", "trialnum": 29, "gender": "male", "qnum": 0}, {"story": "fitness", "time": 152394, "name": "Sarah", "rt": 20295, "blocknum": 4, "qtype": "explanation", "response": "Eating too much", "trialnum": 30, "gender": "female", "qnum": 1}, {"story": "fitness", "time": 155278, "name": "Sarah", "rt": 2876, "blocknum": 4, "qtype": "probability", "response": 0.54, "trialnum": 31, "gender": "female", "qnum": 2}, {"story": "fitness", "time": 155278, "name": "Sarah", "rt": 2876, "blocknum": 4, "qtype": "ungrammatical", "trialnum": 31, "gender": "female", "qnum": 2}, {"story": "fitness", "time": 157262, "name": "Dustin", "rt": 1976, "blocknum": 4, "qtype": "probability", "response": 0.51, "trialnum": 32, "gender": "male", "qnum": 3}, {"story": "fitness", "time": 157262, "name": "Dustin", "rt": 1976, "blocknum": 4, "qtype": "ungrammatical", "response": false, "trialnum": 32, "gender": "male", "qnum": 3}, {"story": "fitness", "time": 158966, "name": "Jennifer", "rt": 1696, "blocknum": 4, "qtype": "probability", "response": 0.47, "trialnum": 33, "gender": "female", "qnum": 4}, {"story": "fitness", "time": 158966, "name": "Jennifer", "rt": 1696, "blocknum": 4, "qtype": "ungrammatical", "response": false, "trialnum": 33, "gender": "female", "qnum": 4}, {"story": "fitness", "time": 160601, "name": "Emma", "rt": 1626, "blocknum": 4, "qtype": "probability", "response": 0.54, "trialnum": 34, "gender": "female", "qnum": 5}, {"story": "fitness", "time": 160601, "name": "Emma", "rt": 1626, "blocknum": 4, "qtype": "ungrammatical", "response": false, "trialnum": 34, "gender": "female", "qnum": 5}, {"story": "Japan", "time": 163016, "name": "Bradley", "rt": 2392, "blocknum": 5, "qtype": "probability", "response": 0.53, "trialnum": 36, "gender": "male", "qnum": 0}, {"story": "Japan", "time": 163016, "name": "Bradley", "rt": 2392, "blocknum": 5, "qtype": "ungrammatical", "trialnum": 36, "gender": "male", "qnum": 0}, {"story": "Japan", "time": 175737, "name": "Jared", "rt": 12717, "blocknum": 5, "qtype": "explanation", "response": "He was with a group speaking his language", "trialnum": 37, "gender": "male", "qnum": 1}, {"story": "Japan", "time": 177335, "name": "Jared", "rt": 1587, "blocknum": 5, "qtype": "probability", "response": 0.45, "trialnum": 38, "gender": "male", "qnum": 2}, {"story": "Japan", "time": 177335, "name": "Jared", "rt": 1587, "blocknum": 5, "qtype": "ungrammatical", "trialnum": 38, "gender": "male", "qnum": 2}, {"story": "Japan", "time": 179785, "name": "Nicholas", "rt": 2443, "blocknum": 5, "qtype": "probability", "response": 0.52, "trialnum": 39, "gender": "male", "qnum": 3}, {"story": "Japan", "time": 179785, "name": "Nicholas", "rt": 2443, "blocknum": 5, "qtype": "ungrammatical", "response": false, "trialnum": 39, "gender": "male", "qnum": 3}, {"story": "Japan", "time": 181310, "name": "Samuel", "rt": 1512, "blocknum": 5, "qtype": "probability", "response": 0.47, "trialnum": 40, "gender": "male", "qnum": 4}, {"story": "Japan", "time": 181310, "name": "Samuel", "rt": 1512, "blocknum": 5, "qtype": "ungrammatical", "response": false, "trialnum": 40, "gender": "male", "qnum": 4}, {"story": "Japan", "time": 184324, "name": "Connor", "rt": 3005, "blocknum": 5, "qtype": "probability", "response": 0.46, "trialnum": 41, "gender": "male", "qnum": 5}, {"story": "Japan", "time": 184324, "name": "Connor", "rt": 3005, "blocknum": 5, "qtype": "ungrammatical", "response": false, "trialnum": 41, "gender": "male", "qnum": 5}, {"story": "reading", "time": 187050, "name": "Marissa", "rt": 2715, "blocknum": 6, "qtype": "probability", "response": 0.53, "trialnum": 43, "gender": "female", "qnum": 0}, {"story": "reading", "time": 187050, "name": "Marissa", "rt": 2715, "blocknum": 6, "qtype": "ungrammatical", "trialnum": 43, "gender": "female", "qnum": 0}, {"story": "reading", "time": 199164, "name": "Stephanie", "rt": 12108, "blocknum": 6, "qtype": "explanation", "response": "She didn't feel well while reading", "trialnum": 44, "gender": "female", "qnum": 1}, {"story": "reading", "time": 201261, "name": "Stephanie", "rt": 2087, "blocknum": 6, "qtype": "probability", "response": 0.48, "trialnum": 45, "gender": "female", "qnum": 2}, {"story": "reading", "time": 201261, "name": "Stephanie", "rt": 2087, "blocknum": 6, "qtype": "ungrammatical", "trialnum": 45, "gender": "female", "qnum": 2}, {"story": "reading", "time": 202816, "name": "Kyle", "rt": 1545, "blocknum": 6, "qtype": "probability", "response": 0.52, "trialnum": 46, "gender": "male", "qnum": 3}, {"story": "reading", "time": 202816, "name": "Kyle", "rt": 1545, "blocknum": 6, "qtype": "ungrammatical", "response": false, "trialnum": 46, "gender": "male", "qnum": 3}, {"story": "reading", "time": 205831, "name": "Zach", "rt": 3007, "blocknum": 6, "qtype": "probability", "response": 0.47, "trialnum": 47, "gender": "male", "qnum": 4}, {"story": "reading", "time": 205831, "name": "Zach", "rt": 3007, "blocknum": 6, "qtype": "ungrammatical", "response": false, "trialnum": 47, "gender": "male", "qnum": 4}, {"story": "reading", "time": 207632, "name": "Alexandra", "rt": 1792, "blocknum": 6, "qtype": "probability", "response": 0.47, "trialnum": 48, "gender": "female", "qnum": 5}, {"story": "reading", "time": 207632, "name": "Alexandra", "rt": 1792, "blocknum": 6, "qtype": "ungrammatical", "response": false, "trialnum": 48, "gender": "female", "qnum": 5}, {"story": "insomnia", "time": 209457, "name": "Cameron", "rt": 1767, "blocknum": 7, "qtype": "probability", "response": 0.58, "trialnum": 50, "gender": "male", "qnum": 0}, {"story": "insomnia", "time": 209457, "name": "Cameron", "rt": 1767, "blocknum": 7, "qtype": "ungrammatical", "trialnum": 50, "gender": "male", "qnum": 0}, {"story": "insomnia", "time": 240507, "name": "Mark", "rt": 31046, "blocknum": 7, "qtype": "explanation", "response": "He is not affected by insomnia traditionally.", "trialnum": 51, "gender": "male", "qnum": 1}, {"story": "insomnia", "time": 242627, "name": "Mark", "rt": 2101, "blocknum": 7, "qtype": "probability", "response": 0.49, "trialnum": 52, "gender": "male", "qnum": 2}, {"story": "insomnia", "time": 242627, "name": "Mark", "rt": 2101, "blocknum": 7, "qtype": "ungrammatical", "trialnum": 52, "gender": "male", "qnum": 2}, {"story": "insomnia", "time": 244434, "name": "Justin", "rt": 1798, "blocknum": 7, "qtype": "probability", "response": 0.65, "trialnum": 53, "gender": "male", "qnum": 3}, {"story": "insomnia", "time": 244434, "name": "Justin", "rt": 1798, "blocknum": 7, "qtype": "ungrammatical", "response": false, "trialnum": 53, "gender": "male", "qnum": 3}, {"story": "insomnia", "time": 246275, "name": "Will", "rt": 1833, "blocknum": 7, "qtype": "probability", "response": 0.54, "trialnum": 54, "gender": "male", "qnum": 4}, {"story": "insomnia", "time": 246275, "name": "Will", "rt": 1833, "blocknum": 7, "qtype": "ungrammatical", "response": false, "trialnum": 54, "gender": "male", "qnum": 4}, {"story": "insomnia", "time": 249256, "name": "Anna", "rt": 2973, "blocknum": 7, "qtype": "probability", "response": 0.49, "trialnum": 55, "gender": "female", "qnum": 5}, {"story": "insomnia", "time": 249256, "name": "Anna", "rt": 2973, "blocknum": 7, "qtype": "ungrammatical", "response": false, "trialnum": 55, "gender": "female", "qnum": 5}, {"story": "cooking", "time": 251781, "name": "Chelsea", "rt": 2514, "blocknum": 8, "qtype": "probability", "response": 0.58, "trialnum": 57, "gender": "female", "qnum": 0}, {"story": "cooking", "time": 251781, "name": "Chelsea", "rt": 2514, "blocknum": 8, "qtype": "ungrammatical", "trialnum": 57, "gender": "female", "qnum": 0}, {"story": "cooking", "time": 258517, "name": "Eric", "rt": 6728, "blocknum": 8, "qtype": "explanation", "response": "He was goofing off too much", "trialnum": 58, "gender": "male", "qnum": 1}, {"story": "cooking", "time": 260387, "name": "Eric", "rt": 1859, "blocknum": 8, "qtype": "probability", "response": 0.47, "trialnum": 59, "gender": "male", "qnum": 2}, {"story": "cooking", "time": 260387, "name": "Eric", "rt": 1859, "blocknum": 8, "qtype": "ungrammatical", "trialnum": 59, "gender": "male", "qnum": 2}, {"story": "cooking", "time": 262464, "name": "Juan", "rt": 2069, "blocknum": 8, "qtype": "probability", "response": 0.46, "trialnum": 60, "gender": "male", "qnum": 3}, {"story": "cooking", "time": 262464, "name": "Juan", "rt": 2069, "blocknum": 8, "qtype": "ungrammatical", "response": false, "trialnum": 60, "gender": "male", "qnum": 3}, {"story": "cooking", "time": 263961, "name": "Haley", "rt": 1489, "blocknum": 8, "qtype": "probability", "response": 0.59, "trialnum": 61, "gender": "female", "qnum": 4}, {"story": "cooking", "time": 263961, "name": "Haley", "rt": 1489, "blocknum": 8, "qtype": "ungrammatical", "response": false, "trialnum": 61, "gender": "female", "qnum": 4}, {"story": "cooking", "time": 266059, "name": "Erica", "rt": 2091, "blocknum": 8, "qtype": "probability", "response": 0.47, "trialnum": 62, "gender": "female", "qnum": 5}, {"story": "cooking", "time": 266059, "name": "Erica", "rt": 2091, "blocknum": 8, "qtype": "ungrammatical", "response": false, "trialnum": 62, "gender": "female", "qnum": 5}], "events": [{"type": "position", "time": 106, "x": 0, "y": 0}, {"type": "position", "time": 252, "x": 0, "y": 0}, {"type": "position", "time": 402, "x": 0.8560554421395263, "y": 0.28824598615214964}, {"type": "position", "time": 527, "x": 0.8560554421395263, "y": 0.28824598615214964}, {"type": "position", "time": 576, "x": 0.8560554421395263, "y": 0.28824598615214964}, {"type": "position", "time": 627, "x": 0.8560554421395263, "y": 0.28824598615214964}, {"type": "position", "time": 676, "x": 0.8410588504524106, "y": 0.34989397162977703}, {"type": "position", "time": 726, "x": 0.8373097025306316, "y": 0.3998788247197452}, {"type": "position", "time": 777, "x": 0.8373097025306316, "y": 0.43486822188272284}, {"type": "position", "time": 826, "x": 0.8373097025306316, "y": 0.4498636778097133}, {"type": "position", "time": 878, "x": 0.8373097025306316, "y": 0.4598606484277069}, {"type": "position", "time": 926, "x": 0.8360599865567052, "y": 0.46652529550636934}, {"type": "position", "time": 976, "x": 0.8348102705827789, "y": 0.4748561043546974}, {"type": "position", "time": 1026, "x": 0.8335605546088526, "y": 0.476522266124363}, {"type": "position", "time": 1076, "x": 0.8335605546088526, "y": 0.476522266124363}, {"type": "position", "time": 1126, "x": 0.8335605546088526, "y": 0.476522266124363}, {"type": "click", "time": 1180, "x": 0.8335605546088526, "y": 0.476522266124363}, {"type": "position", "time": 1222, "x": 0.8335605546088526, "y": 0.476522266124363}, {"type": "position", "time": 1226, "x": 0.8335605546088526, "y": 0.476522266124363}, {"type": "position", "time": 1276, "x": 0.8335605546088526, "y": 0.476522266124363}, {"type": "position", "time": 1326, "x": 0.8335605546088526, "y": 0.476522266124363}, {"type": "position", "time": 1376, "x": 0.8335605546088526, "y": 0.476522266124363}, {"type": "position", "time": 1426, "x": 0.8335605546088526, "y": 0.476522266124363}, {"type": "position", "time": 1476, "x": 0.8335605546088526, "y": 0.476522266124363}, {"type": "position", "time": 1526, "x": 0.8335605546088526, "y": 0.476522266124363}, {"type": "position", "time": 1576, "x": 0.8335605546088526, "y": 0.476522266124363}, {"type": "position", "time": 1626, "x": 0.8335605546088526, "y": 0.476522266124363}, {"type": "position", "time": 1676, "x": 0.8335605546088526, "y": 0.476522266124363}, {"type": "position", "time": 1727, "x": 0.8335605546088526, "y": 0.476522266124363}, {"type": "position", "time": 1776, "x": 0.8335605546088526, "y": 0.476522266124363}, {"type": "position", "time": 1826, "x": 0.8335605546088526, "y": 0.476522266124363}, {"type": "position", "time": 1876, "x": 0.8335605546088526, "y": 0.476522266124363}, {"type": "position", "time": 1926, "x": 0.8335605546088526, "y": 0.476522266124363}, {"type": "position", "time": 1976, "x": 0.8335605546088526, "y": 0.476522266124363}, {"type": "position", "time": 2026, "x": 0.8335605546088526, "y": 0.476522266124363}, {"type": "position", "time": 2076, "x": 0.8335605546088526, "y": 0.476522266124363}, {"type": "position", "time": 2126, "x": 0.8335605546088526, "y": 0.476522266124363}, {"type": "position", "time": 2180, "x": 0.8285616907131473, "y": 0.49485004559068463}, {"type": "position", "time": 2226, "x": 0.8248125427913684, "y": 0.5081793397480094}, {"type": "position", "time": 2276, "x": 0.8235628268174421, "y": 0.5165101485963375}, {"type": "position", "time": 2326, "x": 0.8235628268174421, "y": 0.5248409574446655}, {"type": "position", "time": 2376, "x": 0.8235628268174421, "y": 0.5348379280626592}, {"type": "position", "time": 2426, "x": 0.8248125427913684, "y": 0.539836413371656}, {"type": "position", "time": 2476, "x": 0.827311974739221, "y": 0.5431687369109872}, {"type": "position", "time": 2526, "x": 0.8298114066870736, "y": 0.5465010604503184}, {"type": "position", "time": 2578, "x": 0.8348102705827789, "y": 0.5498333839896496}, {"type": "position", "time": 2626, "x": 0.8410588504524106, "y": 0.5498333839896496}, {"type": "position", "time": 2676, "x": 0.8498068622698948, "y": 0.5548318692986464}, {"type": "position", "time": 2726, "x": 0.8560554421395263, "y": 0.556498031068312}, {"type": "position", "time": 2776, "x": 0.858554874087379, "y": 0.556498031068312}, {"type": "position", "time": 2826, "x": 0.8598045900613053, "y": 0.556498031068312}, {"type": "position", "time": 2876, "x": 0.8598045900613053, "y": 0.556498031068312}, {"type": "position", "time": 2926, "x": 0.8598045900613053, "y": 0.556498031068312}, {"type": "position", "time": 2976, "x": 0.8598045900613053, "y": 0.556498031068312}, {"type": "slider", "time": 3007, "value": 0.56}, {"type": "click", "time": 3018, "x": 0.8598045900613053, "y": 0.556498031068312}, {"type": "position", "time": 3026, "x": 0.8598045900613053, "y": 0.556498031068312}, {"type": "position", "time": 3076, "x": 0.8598045900613053, "y": 0.556498031068312}, {"type": "position", "time": 3126, "x": 0.8598045900613053, "y": 0.556498031068312}, {"type": "position", "time": 3176, "x": 0.8598045900613053, "y": 0.556498031068312}, {"type": "position", "time": 3226, "x": 0.8598045900613053, "y": 0.556498031068312}, {"type": "position", "time": 3276, "x": 0.8598045900613053, "y": 0.556498031068312}, {"type": "position", "time": 3326, "x": 0.8598045900613053, "y": 0.556498031068312}, {"type": "position", "time": 3376, "x": 0.8598045900613053, "y": 0.556498031068312}, {"type": "position", "time": 3426, "x": 0.8598045900613053, "y": 0.556498031068312}, {"type": "position", "time": 3476, "x": 0.8598045900613053, "y": 0.556498031068312}, {"type": "position", "time": 3526, "x": 0.8598045900613053, "y": 0.556498031068312}, {"type": "position", "time": 3576, "x": 0.8598045900613053, "y": 0.556498031068312}, {"type": "position", "time": 3626, "x": 0.8598045900613053, "y": 0.556498031068312}, {"type": "position", "time": 3676, "x": 0.8598045900613053, "y": 0.556498031068312}, {"type": "position", "time": 3726, "x": 0.8598045900613053, "y": 0.556498031068312}, {"type": "position", "time": 3776, "x": 0.8598045900613053, "y": 0.556498031068312}, {"type": "position", "time": 3828, "x": 1.0985003410812315, "y": 0.4731899425850318}, {"type": "position", "time": 3876, "x": 1.5621449674078947, "y": 0.39154801587141713}, {"type": "position", "time": 3926, "x": 1.5621449674078947, "y": 0.39154801587141713}, {"type": "position", "time": 3976, "x": 1.5621449674078947, "y": 0.39154801587141713}, {"type": "position", "time": 4026, "x": 1.5621449674078947, "y": 0.39154801587141713}, {"type": "position", "time": 4076, "x": 1.5621449674078947, "y": 0.39154801587141713}, {"type": "position", "time": 4126, "x": 1.5621449674078947, "y": 0.39154801587141713}, {"type": "position", "time": 4176, "x": 1.5621449674078947, "y": 0.39154801587141713}, {"type": "position", "time": 4226, "x": 1.5621449674078947, "y": 0.39154801587141713}, {"type": "position", "time": 4276, "x": 1.5621449674078947, "y": 0.39154801587141713}, {"type": "position", "time": 4326, "x": 1.5621449674078947, "y": 0.39154801587141713}, {"type": "position", "time": 4376, "x": 1.5621449674078947, "y": 0.39154801587141713}, {"type": "position", "time": 4426, "x": 1.5621449674078947, "y": 0.39154801587141713}, {"type": "position", "time": 4476, "x": 1.5621449674078947, "y": 0.39154801587141713}, {"type": "position", "time": 4526, "x": 1.5621449674078947, "y": 0.39154801587141713}, {"type": "position", "time": 4576, "x": 1.5621449674078947, "y": 0.39154801587141713}, {"type": "position", "time": 4626, "x": 1.5621449674078947, "y": 0.39154801587141713}, {"type": "position", "time": 4676, "x": 1.3197000684661895, "y": 0.7531051198888534}, {"type": "position", "time": 4726, "x": 1.2047261988649685, "y": 0.7281126933438693}, {"type": "position", "time": 4776, "x": 1.0947511931594527, "y": 0.7014541050292197}, {"type": "position", "time": 4826, "x": 1.0235173826456527, "y": 0.6814601637932324}, {"type": "position", "time": 4876, "x": 0.9872756194017894, "y": 0.6731293549449043}, {"type": "position", "time": 4926, "x": 0.8960463533051685, "y": 0.6581338990179139}, {"type": "position", "time": 4976, "x": 0.8185639629217368, "y": 0.6314753107032642}, {"type": "position", "time": 5026, "x": 0.7985685073389158, "y": 0.628142987163933}, {"type": "position", "time": 5076, "x": 0.7910702114953579, "y": 0.6298091489335986}, {"type": "position", "time": 5126, "x": 0.7910702114953579, "y": 0.6298091489335986}, {"type": "position", "time": 5176, "x": 0.7910702114953579, "y": 0.6298091489335986}, {"type": "position", "time": 5226, "x": 0.7910702114953579, "y": 0.6298091489335986}, {"type": "position", "time": 5276, "x": 0.7910702114953579, "y": 0.6298091489335986}, {"type": "position", "time": 5326, "x": 0.7910702114953579, "y": 0.6298091489335986}, {"type": "position", "time": 5376, "x": 0.811065667078179, "y": 0.6647985460965763}, {"type": "position", "time": 5426, "x": 0.8135650990260316, "y": 0.6697970314055731}, {"type": "position", "time": 5476, "x": 0.8148148149999579, "y": 0.6714631931752387}, {"type": "position", "time": 5526, "x": 0.8148148149999579, "y": 0.6714631931752387}, {"type": "position", "time": 5576, "x": 0.8148148149999579, "y": 0.6714631931752387}, {"type": "click", "time": 5632, "x": 0.8148148149999579, "y": 0.6714631931752387}, {"type": "position", "time": 5638, "x": 0.8148148149999579, "y": 0.6714631931752387}, {"type": "position", "time": 5676, "x": 0.8148148149999579, "y": 0.6714631931752387}, {"type": "position", "time": 5728, "x": 0.8148148149999579, "y": 0.6714631931752387}, {"type": "position", "time": 5776, "x": 0.8148148149999579, "y": 0.6714631931752387}, {"type": "position", "time": 5826, "x": 0.8148148149999579, "y": 0.6714631931752387}, {"type": "position", "time": 5876, "x": 0.8148148149999579, "y": 0.6714631931752387}, {"type": "position", "time": 5926, "x": 0.8148148149999579, "y": 0.6714631931752387}, {"type": "position", "time": 5976, "x": 0.8148148149999579, "y": 0.6714631931752387}, {"type": "position", "time": 6026, "x": 0.8148148149999579, "y": 0.6714631931752387}, {"type": "position", "time": 6076, "x": 0.8148148149999579, "y": 0.6714631931752387}, {"type": "position", "time": 6126, "x": 0.8148148149999579, "y": 0.6714631931752387}, {"type": "position", "time": 6177, "x": 0.8148148149999579, "y": 0.6714631931752387}, {"type": "position", "time": 6229, "x": 0.8135650990260316, "y": 0.628142987163933}, {"type": "position", "time": 6276, "x": 0.8073165191564, "y": 0.5714934869953024}, {"type": "position", "time": 6326, "x": 0.8023176552606948, "y": 0.5498333839896496}, {"type": "position", "time": 6376, "x": 0.7973187913649895, "y": 0.5265071192143311}, {"type": "position", "time": 6426, "x": 0.7910702114953579, "y": 0.49984853089968145}, {"type": "position", "time": 6476, "x": 0.787321063573579, "y": 0.4881853985120222}, {"type": "position", "time": 6526, "x": 0.787321063573579, "y": 0.4865192367423566}, {"type": "position", "time": 6576, "x": 0.787321063573579, "y": 0.4865192367423566}, {"type": "position", "time": 6626, "x": 0.787321063573579, "y": 0.4865192367423566}, {"type": "position", "time": 6676, "x": 0.787321063573579, "y": 0.4865192367423566}, {"type": "position", "time": 6731, "x": 0.7835719156518, "y": 0.49818236913001585}, {"type": "position", "time": 6776, "x": 0.7823221996778736, "y": 0.5048470162086782}, {"type": "position", "time": 6826, "x": 0.779822767730021, "y": 0.5165101485963375}, {"type": "position", "time": 6876, "x": 0.7785730517560947, "y": 0.5231747956749999}, {"type": "position", "time": 6926, "x": 0.7785730517560947, "y": 0.5231747956749999}, {"type": "position", "time": 6976, "x": 0.7785730517560947, "y": 0.5231747956749999}, {"type": "click", "time": 7011, "x": 0.7785730517560947, "y": 0.5231747956749999}, {"type": "position", "time": 7026, "x": 0.7785730517560947, "y": 0.5231747956749999}, {"type": "position", "time": 7076, "x": 0.7785730517560947, "y": 0.5231747956749999}, {"type": "position", "time": 7126, "x": 0.7785730517560947, "y": 0.5231747956749999}, {"type": "position", "time": 7176, "x": 0.7785730517560947, "y": 0.5231747956749999}, {"type": "position", "time": 7226, "x": 0.7785730517560947, "y": 0.5231747956749999}, {"type": "position", "time": 7276, "x": 0.7785730517560947, "y": 0.5231747956749999}, {"type": "position", "time": 7328, "x": 0.7823221996778736, "y": 0.5298394427536623}, {"type": "position", "time": 7376, "x": 0.7898204955214316, "y": 0.5581641928379776}, {"type": "position", "time": 7426, "x": 0.7910702114953579, "y": 0.5664950016863056}, {"type": "position", "time": 7476, "x": 0.7910702114953579, "y": 0.5664950016863056}, {"type": "position", "time": 7526, "x": 0.7910702114953579, "y": 0.5664950016863056}, {"type": "position", "time": 7576, "x": 0.7898204955214316, "y": 0.56482883991664}, {"type": "position", "time": 7626, "x": 0.7898204955214316, "y": 0.5631626781469744}, {"type": "position", "time": 7676, "x": 0.7898204955214316, "y": 0.5614965163773088}, {"type": "position", "time": 7726, "x": 0.7898204955214316, "y": 0.5614965163773088}, {"type": "position", "time": 7776, "x": 0.7898204955214316, "y": 0.5614965163773088}, {"type": "position", "time": 7826, "x": 0.7898204955214316, "y": 0.5614965163773088}, {"type": "position", "time": 7876, "x": 0.7898204955214316, "y": 0.5614965163773088}, {"type": "position", "time": 7926, "x": 0.7898204955214316, "y": 0.5614965163773088}, {"type": "position", "time": 7976, "x": 0.7898204955214316, "y": 0.5614965163773088}, {"type": "position", "time": 8026, "x": 0.7898204955214316, "y": 0.5614965163773088}, {"type": "position", "time": 8076, "x": 0.7898204955214316, "y": 0.5614965163773088}, {"type": "position", "time": 8126, "x": 0.7898204955214316, "y": 0.5614965163773088}, {"type": "position", "time": 8176, "x": 0.7898204955214316, "y": 0.5614965163773088}, {"type": "position", "time": 8226, "x": 0.7898204955214316, "y": 0.5614965163773088}, {"type": "position", "time": 8276, "x": 0.7898204955214316, "y": 0.5614965163773088}, {"type": "position", "time": 8326, "x": 0.7898204955214316, "y": 0.5614965163773088}, {"type": "position", "time": 8376, "x": 0.7898204955214316, "y": 0.5614965163773088}, {"type": "position", "time": 8426, "x": 0.7898204955214316, "y": 0.5614965163773088}, {"type": "position", "time": 8476, "x": 0.7898204955214316, "y": 0.5614965163773088}, {"type": "position", "time": 8526, "x": 0.7898204955214316, "y": 0.5614965163773088}, {"type": "position", "time": 8576, "x": 0.7898204955214316, "y": 0.5614965163773088}, {"type": "position", "time": 8626, "x": 0.7898204955214316, "y": 0.5614965163773088}, {"type": "position", "time": 8676, "x": 0.7898204955214316, "y": 0.5614965163773088}, {"type": "position", "time": 8728, "x": 0.7898204955214316, "y": 0.5614965163773088}, {"type": "position", "time": 8776, "x": 0.7898204955214316, "y": 0.5614965163773088}, {"type": "position", "time": 8826, "x": 0.7898204955214316, "y": 0.5614965163773088}, {"type": "position", "time": 8876, "x": 0.7898204955214316, "y": 0.5614965163773088}, {"type": "position", "time": 8926, "x": 0.7898204955214316, "y": 0.5614965163773088}, {"type": "position", "time": 8976, "x": 0.7898204955214316, "y": 0.5614965163773088}, {"type": "position", "time": 9026, "x": 0.7898204955214316, "y": 0.5614965163773088}, {"type": "position", "time": 9076, "x": 0.7898204955214316, "y": 0.5614965163773088}, {"type": "position", "time": 9126, "x": 0.7898204955214316, "y": 0.5614965163773088}, {"type": "position", "time": 9176, "x": 0.7898204955214316, "y": 0.5614965163773088}, {"type": "position", "time": 9226, "x": 0.7898204955214316, "y": 0.5614965163773088}, {"type": "position", "time": 9276, "x": 0.7898204955214316, "y": 0.5614965163773088}, {"type": "position", "time": 9326, "x": 0.7898204955214316, "y": 0.5614965163773088}, {"type": "position", "time": 9376, "x": 0.7898204955214316, "y": 0.5614965163773088}, {"type": "position", "time": 9426, "x": 0.7898204955214316, "y": 0.5614965163773088}, {"type": "position", "time": 9476, "x": 0.7898204955214316, "y": 0.5614965163773088}, {"type": "position", "time": 9526, "x": 0.7898204955214316, "y": 0.5614965163773088}, {"type": "position", "time": 9576, "x": 0.7898204955214316, "y": 0.5614965163773088}, {"type": "position", "time": 9626, "x": 0.7898204955214316, "y": 0.5614965163773088}, {"type": "position", "time": 9676, "x": 0.7898204955214316, "y": 0.5614965163773088}, {"type": "position", "time": 9726, "x": 0.7898204955214316, "y": 0.5614965163773088}, {"type": "position", "time": 9776, "x": 0.7898204955214316, "y": 0.5614965163773088}, {"type": "position", "time": 9826, "x": 0.7898204955214316, "y": 0.5614965163773088}, {"type": "position", "time": 9876, "x": 0.7898204955214316, "y": 0.5614965163773088}, {"type": "position", "time": 9926, "x": 0.7898204955214316, "y": 0.5614965163773088}, {"type": "position", "time": 9976, "x": 0.7898204955214316, "y": 0.5614965163773088}, {"type": "position", "time": 10026, "x": 0.7898204955214316, "y": 0.5614965163773088}, {"type": "position", "time": 10076, "x": 0.7898204955214316, "y": 0.5614965163773088}, {"type": "position", "time": 10126, "x": 0.7898204955214316, "y": 0.5614965163773088}, {"type": "position", "time": 10176, "x": 0.7898204955214316, "y": 0.5614965163773088}, {"type": "position", "time": 10226, "x": 0.7898204955214316, "y": 0.5614965163773088}, {"type": "position", "time": 10276, "x": 0.7898204955214316, "y": 0.5614965163773088}, {"type": "position", "time": 10326, "x": 0.7898204955214316, "y": 0.5614965163773088}, {"type": "position", "time": 10376, "x": 0.7898204955214316, "y": 0.5614965163773088}, {"type": "position", "time": 10426, "x": 0.7898204955214316, "y": 0.5614965163773088}, {"type": "position", "time": 10476, "x": 0.7898204955214316, "y": 0.5614965163773088}, {"type": "position", "time": 10526, "x": 0.7898204955214316, "y": 0.5614965163773088}, {"type": "position", "time": 10576, "x": 0.7898204955214316, "y": 0.5614965163773088}, {"type": "position", "time": 10626, "x": 0.7898204955214316, "y": 0.5614965163773088}, {"type": "position", "time": 10676, "x": 0.7898204955214316, "y": 0.5614965163773088}, {"type": "position", "time": 10726, "x": 0.7898204955214316, "y": 0.5614965163773088}, {"type": "position", "time": 10776, "x": 0.7898204955214316, "y": 0.5614965163773088}, {"type": "position", "time": 10826, "x": 0.7898204955214316, "y": 0.5614965163773088}, {"type": "position", "time": 10876, "x": 0.7898204955214316, "y": 0.5614965163773088}, {"type": "position", "time": 10926, "x": 0.7898204955214316, "y": 0.5614965163773088}, {"type": "position", "time": 10976, "x": 0.7898204955214316, "y": 0.5614965163773088}, {"type": "position", "time": 11026, "x": 0.7898204955214316, "y": 0.5614965163773088}, {"type": "position", "time": 11076, "x": 0.7898204955214316, "y": 0.5614965163773088}, {"type": "position", "time": 11126, "x": 0.7898204955214316, "y": 0.5614965163773088}, {"type": "position", "time": 11176, "x": 0.7898204955214316, "y": 0.5614965163773088}, {"type": "position", "time": 11226, "x": 0.7898204955214316, "y": 0.5614965163773088}, {"type": "position", "time": 11276, "x": 0.7898204955214316, "y": 0.5614965163773088}, {"type": "position", "time": 11326, "x": 0.7898204955214316, "y": 0.5614965163773088}, {"type": "position", "time": 11376, "x": 0.7898204955214316, "y": 0.5614965163773088}, {"type": "position", "time": 11426, "x": 0.7898204955214316, "y": 0.5614965163773088}, {"type": "position", "time": 11477, "x": 0.7898204955214316, "y": 0.5614965163773088}, {"type": "position", "time": 11526, "x": 0.7898204955214316, "y": 0.5614965163773088}, {"type": "position", "time": 11576, "x": 0.7898204955214316, "y": 0.5614965163773088}, {"type": "position", "time": 11626, "x": 0.7898204955214316, "y": 0.5614965163773088}, {"type": "position", "time": 11676, "x": 0.7898204955214316, "y": 0.5614965163773088}, {"type": "position", "time": 11726, "x": 0.7898204955214316, "y": 0.5614965163773088}, {"type": "position", "time": 11776, "x": 0.7898204955214316, "y": 0.5614965163773088}, {"type": "position", "time": 11826, "x": 0.7898204955214316, "y": 0.5614965163773088}, {"type": "position", "time": 11876, "x": 0.7898204955214316, "y": 0.5614965163773088}, {"type": "position", "time": 11926, "x": 0.7898204955214316, "y": 0.5614965163773088}, {"type": "position", "time": 11976, "x": 0.7898204955214316, "y": 0.5614965163773088}, {"type": "position", "time": 12026, "x": 0.7898204955214316, "y": 0.5614965163773088}, {"type": "position", "time": 12076, "x": 0.7898204955214316, "y": 0.5614965163773088}, {"type": "position", "time": 12126, "x": 0.7898204955214316, "y": 0.5614965163773088}, {"type": "position", "time": 12176, "x": 0.7898204955214316, "y": 0.5614965163773088}, {"type": "position", "time": 12226, "x": 0.7898204955214316, "y": 0.5614965163773088}, {"type": "position", "time": 12276, "x": 0.7898204955214316, "y": 0.5614965163773088}, {"type": "position", "time": 12326, "x": 0.7898204955214316, "y": 0.5614965163773088}, {"type": "position", "time": 12376, "x": 0.7898204955214316, "y": 0.5614965163773088}, {"type": "position", "time": 12426, "x": 0.7898204955214316, "y": 0.5614965163773088}, {"type": "position", "time": 12476, "x": 0.7898204955214316, "y": 0.5614965163773088}, {"type": "position", "time": 12526, "x": 0.7898204955214316, "y": 0.5614965163773088}, {"type": "position", "time": 12576, "x": 0.7898204955214316, "y": 0.5614965163773088}, {"type": "position", "time": 12626, "x": 0.7898204955214316, "y": 0.5614965163773088}, {"type": "position", "time": 12676, "x": 0.7898204955214316, "y": 0.5614965163773088}, {"type": "position", "time": 12726, "x": 0.7898204955214316, "y": 0.5614965163773088}, {"type": "position", "time": 12776, "x": 0.7898204955214316, "y": 0.5614965163773088}, {"type": "position", "time": 12826, "x": 0.7898204955214316, "y": 0.5614965163773088}, {"type": "position", "time": 12876, "x": 0.7898204955214316, "y": 0.5614965163773088}, {"type": "position", "time": 12926, "x": 0.7898204955214316, "y": 0.5614965163773088}, {"type": "position", "time": 12976, "x": 0.7898204955214316, "y": 0.5614965163773088}, {"type": "position", "time": 13026, "x": 0.7898204955214316, "y": 0.5614965163773088}, {"type": "position", "time": 13076, "x": 0.7898204955214316, "y": 0.5614965163773088}, {"type": "position", "time": 13126, "x": 0.7898204955214316, "y": 0.5614965163773088}, {"type": "position", "time": 13176, "x": 0.7898204955214316, "y": 0.5614965163773088}, {"type": "position", "time": 13226, "x": 0.7898204955214316, "y": 0.5614965163773088}, {"type": "position", "time": 13276, "x": 0.7898204955214316, "y": 0.5614965163773088}, {"type": "position", "time": 13326, "x": 0.7898204955214316, "y": 0.5614965163773088}, {"type": "position", "time": 13376, "x": 0.7898204955214316, "y": 0.5614965163773088}, {"type": "position", "time": 13426, "x": 0.7898204955214316, "y": 0.5614965163773088}, {"type": "position", "time": 13476, "x": 0.7898204955214316, "y": 0.5614965163773088}, {"type": "position", "time": 13526, "x": 0.7898204955214316, "y": 0.5614965163773088}, {"type": "position", "time": 13576, "x": 0.7898204955214316, "y": 0.5614965163773088}, {"type": "position", "time": 13626, "x": 0.7898204955214316, "y": 0.5614965163773088}, {"type": "position", "time": 13676, "x": 0.7898204955214316, "y": 0.5614965163773088}, {"type": "position", "time": 13727, "x": 0.7898204955214316, "y": 0.5614965163773088}, {"type": "position", "time": 13776, "x": 0.8535560101916737, "y": 0.5781581340739649}, {"type": "position", "time": 13826, "x": 1.4784139971548316, "y": 0.683126325562898}, {"type": "position", "time": 13877, "x": 1.5771415590950106, "y": 0.6747955167145699}, {"type": "position", "time": 13926, "x": 1.5771415590950106, "y": 0.6747955167145699}, {"type": "position", "time": 13976, "x": 1.5771415590950106, "y": 0.6747955167145699}, {"type": "position", "time": 14026, "x": 1.5771415590950106, "y": 0.6747955167145699}, {"type": "position", "time": 14076, "x": 1.5771415590950106, "y": 0.6747955167145699}, {"type": "position", "time": 14126, "x": 1.5771415590950106, "y": 0.6747955167145699}, {"type": "position", "time": 14176, "x": 1.5771415590950106, "y": 0.6747955167145699}, {"type": "position", "time": 14226, "x": 1.5771415590950106, "y": 0.6747955167145699}, {"type": "position", "time": 14276, "x": 1.5771415590950106, "y": 0.6747955167145699}, {"type": "position", "time": 14326, "x": 1.5771415590950106, "y": 0.6747955167145699}, {"type": "position", "time": 14376, "x": 1.5771415590950106, "y": 0.6747955167145699}, {"type": "position", "time": 14426, "x": 1.5771415590950106, "y": 0.6747955167145699}, {"type": "position", "time": 14476, "x": 1.5771415590950106, "y": 0.6747955167145699}, {"type": "position", "time": 14526, "x": 1.5771415590950106, "y": 0.6747955167145699}, {"type": "position", "time": 14576, "x": 1.5771415590950106, "y": 0.6747955167145699}, {"type": "position", "time": 14626, "x": 1.5771415590950106, "y": 0.6747955167145699}, {"type": "position", "time": 14676, "x": 1.5771415590950106, "y": 0.6747955167145699}, {"type": "position", "time": 14726, "x": 1.5771415590950106, "y": 0.6747955167145699}, {"type": "position", "time": 14776, "x": 1.5771415590950106, "y": 0.6747955167145699}, {"type": "position", "time": 14826, "x": 1.5771415590950106, "y": 0.6747955167145699}, {"type": "position", "time": 14876, "x": 1.5771415590950106, "y": 0.6747955167145699}, {"type": "position", "time": 14927, "x": 1.5771415590950106, "y": 0.6747955167145699}, {"type": "position", "time": 14976, "x": 1.5771415590950106, "y": 0.6747955167145699}, {"type": "position", "time": 15026, "x": 1.5771415590950106, "y": 0.6747955167145699}, {"type": "position", "time": 15076, "x": 1.5771415590950106, "y": 0.6747955167145699}, {"type": "position", "time": 15126, "x": 1.5771415590950106, "y": 0.6747955167145699}, {"type": "position", "time": 15176, "x": 1.5771415590950106, "y": 0.6747955167145699}, {"type": "position", "time": 15226, "x": 1.5771415590950106, "y": 0.6747955167145699}, {"type": "position", "time": 15276, "x": 1.5771415590950106, "y": 0.6747955167145699}, {"type": "position", "time": 15326, "x": 1.5771415590950106, "y": 0.6747955167145699}, {"type": "position", "time": 15376, "x": 1.5771415590950106, "y": 0.6747955167145699}, {"type": "position", "time": 15426, "x": 1.5771415590950106, "y": 0.6747955167145699}, {"type": "position", "time": 15476, "x": 1.5771415590950106, "y": 0.6747955167145699}, {"type": "position", "time": 15526, "x": 1.5771415590950106, "y": 0.6747955167145699}, {"type": "position", "time": 15576, "x": 1.5771415590950106, "y": 0.6747955167145699}, {"type": "position", "time": 15626, "x": 1.5771415590950106, "y": 0.6747955167145699}, {"type": "position", "time": 15676, "x": 1.5771415590950106, "y": 0.6747955167145699}, {"type": "position", "time": 15726, "x": 1.5771415590950106, "y": 0.6747955167145699}, {"type": "position", "time": 15776, "x": 1.5771415590950106, "y": 0.6747955167145699}, {"type": "position", "time": 15826, "x": 1.5771415590950106, "y": 0.6747955167145699}, {"type": "position", "time": 15876, "x": 1.5771415590950106, "y": 0.6747955167145699}, {"type": "position", "time": 15926, "x": 1.5771415590950106, "y": 0.6747955167145699}, {"type": "position", "time": 15976, "x": 1.5771415590950106, "y": 0.6747955167145699}, {"type": "position", "time": 16026, "x": 1.5771415590950106, "y": 0.6747955167145699}, {"type": "position", "time": 16076, "x": 1.5771415590950106, "y": 0.6747955167145699}, {"type": "position", "time": 16152, "x": 1.5771415590950106, "y": 0.6747955167145699}, {"type": "position", "time": 16176, "x": 1.5771415590950106, "y": 0.6747955167145699}, {"type": "keyup", "time": 16224, "key": "S", "keyCode": 83}, {"type": "position", "time": 16226, "x": 1.5771415590950106, "y": 0.6747955167145699}, {"type": "keyup", "time": 16255, "key": "\u0010", "keyCode": 16}, {"type": "position", "time": 16276, "x": 1.5771415590950106, "y": 0.6747955167145699}, {"type": "position", "time": 16326, "x": 1.5771415590950106, "y": 0.6747955167145699}, {"type": "position", "time": 16376, "x": 1.5771415590950106, "y": 0.6747955167145699}, {"type": "keyup", "time": 16423, "key": "H", "keyCode": 72}, {"type": "position", "time": 16426, "x": 1.5771415590950106, "y": 0.6747955167145699}, {"type": "position", "time": 16476, "x": 1.5771415590950106, "y": 0.6747955167145699}, {"type": "position", "time": 16526, "x": 1.5771415590950106, "y": 0.6747955167145699}, {"type": "keyup", "time": 16538, "key": "E", "keyCode": 69}, {"type": "position", "time": 16576, "x": 1.5771415590950106, "y": 0.6747955167145699}, {"type": "position", "time": 16626, "x": 1.5771415590950106, "y": 0.6747955167145699}, {"type": "keyup", "time": 16630, "key": " ", "keyCode": 32}, {"type": "position", "time": 16676, "x": 1.5771415590950106, "y": 0.6747955167145699}, {"type": "position", "time": 16726, "x": 1.5771415590950106, "y": 0.6747955167145699}, {"type": "position", "time": 16777, "x": 1.5771415590950106, "y": 0.6747955167145699}, {"type": "keyup", "time": 16778, "key": "U", "keyCode": 85}, {"type": "position", "time": 16826, "x": 1.5771415590950106, "y": 0.6747955167145699}, {"type": "position", "time": 16876, "x": 1.5771415590950106, "y": 0.6747955167145699}, {"type": "keyup", "time": 16909, "key": "S", "keyCode": 83}, {"type": "position", "time": 16926, "x": 1.5771415590950106, "y": 0.6747955167145699}, {"type": "position", "time": 16976, "x": 1.5771415590950106, "y": 0.6747955167145699}, {"type": "position", "time": 17026, "x": 1.5771415590950106, "y": 0.6747955167145699}, {"type": "position", "time": 17077, "x": 1.5771415590950106, "y": 0.6747955167145699}, {"type": "keyup", "time": 17083, "key": "E", "keyCode": 69}, {"type": "position", "time": 17127, "x": 1.5771415590950106, "y": 0.6747955167145699}, {"type": "position", "time": 17176, "x": 1.5771415590950106, "y": 0.6747955167145699}, {"type": "position", "time": 17226, "x": 1.5771415590950106, "y": 0.6747955167145699}, {"type": "keyup", "time": 17228, "key": "D", "keyCode": 68}, {"type": "position", "time": 17276, "x": 1.5771415590950106, "y": 0.6747955167145699}, {"type": "keyup", "time": 17322, "key": " ", "keyCode": 32}, {"type": "position", "time": 17326, "x": 1.5771415590950106, "y": 0.6747955167145699}, {"type": "position", "time": 17376, "x": 1.5771415590950106, "y": 0.6747955167145699}, {"type": "position", "time": 17427, "x": 1.5771415590950106, "y": 0.6747955167145699}, {"type": "position", "time": 17476, "x": 1.5771415590950106, "y": 0.6747955167145699}, {"type": "position", "time": 17526, "x": 1.5771415590950106, "y": 0.6747955167145699}, {"type": "keyup", "time": 17568, "key": "G", "keyCode": 71}, {"type": "position", "time": 17576, "x": 1.5771415590950106, "y": 0.6747955167145699}, {"type": "keyup", "time": 17601, "key": "U", "keyCode": 85}, {"type": "position", "time": 17626, "x": 1.5771415590950106, "y": 0.6747955167145699}, {"type": "position", "time": 17676, "x": 1.5771415590950106, "y": 0.6747955167145699}, {"type": "keyup", "time": 17716, "key": "A", "keyCode": 65}, {"type": "position", "time": 17726, "x": 1.5771415590950106, "y": 0.6747955167145699}, {"type": "position", "time": 17776, "x": 1.5771415590950106, "y": 0.6747955167145699}, {"type": "keyup", "time": 17814, "key": "R", "keyCode": 82}, {"type": "position", "time": 17826, "x": 1.5771415590950106, "y": 0.6747955167145699}, {"type": "position", "time": 17876, "x": 1.5771415590950106, "y": 0.6747955167145699}, {"type": "keyup", "time": 17926, "key": "D", "keyCode": 68}, {"type": "position", "time": 17926, "x": 1.5771415590950106, "y": 0.6747955167145699}, {"type": "position", "time": 17976, "x": 1.5771415590950106, "y": 0.6747955167145699}, {"type": "position", "time": 18026, "x": 1.5771415590950106, "y": 0.6747955167145699}, {"type": "position", "time": 18076, "x": 1.5771415590950106, "y": 0.6747955167145699}, {"type": "keyup", "time": 18096, "key": "S", "keyCode": 83}, {"type": "position", "time": 18126, "x": 1.5771415590950106, "y": 0.6747955167145699}, {"type": "keyup", "time": 18161, "key": "\u00be", "keyCode": 190}, {"type": "position", "time": 18176, "x": 1.5771415590950106, "y": 0.6747955167145699}, {"type": "position", "time": 18226, "x": 1.5771415590950106, "y": 0.6747955167145699}, {"type": "position", "time": 18276, "x": 1.5771415590950106, "y": 0.6747955167145699}, {"type": "position", "time": 18326, "x": 1.5771415590950106, "y": 0.6747955167145699}, {"type": "position", "time": 18376, "x": 1.5771415590950106, "y": 0.6747955167145699}, {"type": "position", "time": 18426, "x": 1.5771415590950106, "y": 0.6747955167145699}, {"type": "position", "time": 18476, "x": 1.5771415590950106, "y": 0.6747955167145699}, {"type": "position", "time": 18526, "x": 1.5771415590950106, "y": 0.6747955167145699}, {"type": "position", "time": 18576, "x": 1.5771415590950106, "y": 0.6747955167145699}, {"type": "position", "time": 18627, "x": 1.5771415590950106, "y": 0.6747955167145699}, {"type": "position", "time": 18676, "x": 1.5771415590950106, "y": 0.6747955167145699}, {"type": "position", "time": 18726, "x": 1.5771415590950106, "y": 0.6747955167145699}, {"type": "position", "time": 18778, "x": 1.563394683381821, "y": 0.6714631931752387}, {"type": "position", "time": 18830, "x": 1.2559645537959474, "y": 0.6264768253942674}, {"type": "position", "time": 18878, "x": 1.0860031813419684, "y": 0.539836413371656}, {"type": "position", "time": 18928, "x": 0.9997727791410527, "y": 0.5181763103660031}, {"type": "position", "time": 18978, "x": 0.949784140184, "y": 0.5081793397480094}, {"type": "position", "time": 19028, "x": 0.9360372644708105, "y": 0.5115116632873407}, {"type": "position", "time": 19078, "x": 0.9135423769401368, "y": 0.5415025751413216}, {"type": "position", "time": 19129, "x": 0.8822994775919789, "y": 0.5898212664616241}, {"type": "position", "time": 19179, "x": 0.8698023178527158, "y": 0.6098152076976113}, {"type": "position", "time": 19229, "x": 0.8573051581134526, "y": 0.6264768253942674}, {"type": "position", "time": 19278, "x": 0.8410588504524106, "y": 0.6464707666302547}, {"type": "position", "time": 19328, "x": 0.8360599865567052, "y": 0.6531354137089171}, {"type": "position", "time": 19377, "x": 0.8335605546088526, "y": 0.6531354137089171}, {"type": "position", "time": 19426, "x": 0.8335605546088526, "y": 0.6531354137089171}, {"type": "position", "time": 19476, "x": 0.8335605546088526, "y": 0.6531354137089171}, {"type": "position", "time": 19526, "x": 0.8335605546088526, "y": 0.6531354137089171}, {"type": "position", "time": 19576, "x": 0.8335605546088526, "y": 0.6531354137089171}, {"type": "position", "time": 19626, "x": 0.8335605546088526, "y": 0.6531354137089171}, {"type": "position", "time": 19676, "x": 0.8335605546088526, "y": 0.6531354137089171}, {"type": "position", "time": 19726, "x": 0.8335605546088526, "y": 0.6531354137089171}, {"type": "position", "time": 19776, "x": 0.8335605546088526, "y": 0.6531354137089171}, {"type": "position", "time": 19826, "x": 0.8335605546088526, "y": 0.6531354137089171}, {"type": "position", "time": 19877, "x": 0.8335605546088526, "y": 0.6531354137089171}, {"type": "position", "time": 19926, "x": 0.8335605546088526, "y": 0.6531354137089171}, {"type": "position", "time": 19977, "x": 0.8335605546088526, "y": 0.6531354137089171}, {"type": "position", "time": 20027, "x": 0.8335605546088526, "y": 0.6531354137089171}, {"type": "position", "time": 20076, "x": 0.8335605546088526, "y": 0.6531354137089171}, {"type": "position", "time": 20126, "x": 0.8335605546088526, "y": 0.6531354137089171}, {"type": "position", "time": 20178, "x": 0.8235628268174421, "y": 0.6464707666302547}, {"type": "position", "time": 20228, "x": 0.8023176552606948, "y": 0.6331414724729298}, {"type": "position", "time": 20278, "x": 0.7985685073389158, "y": 0.6331414724729298}, {"type": "position", "time": 20326, "x": 0.7973187913649895, "y": 0.6331414724729298}, {"type": "position", "time": 20376, "x": 0.7973187913649895, "y": 0.6331414724729298}, {"type": "position", "time": 20426, "x": 0.7973187913649895, "y": 0.6331414724729298}, {"type": "position", "time": 20476, "x": 0.7973187913649895, "y": 0.6331414724729298}, {"type": "position", "time": 20526, "x": 0.7973187913649895, "y": 0.6331414724729298}, {"type": "position", "time": 20576, "x": 0.7973187913649895, "y": 0.6331414724729298}, {"type": "click", "time": 20635, "x": 0.7973187913649895, "y": 0.6331414724729298}, {"type": "position", "time": 20640, "x": 0.7973187913649895, "y": 0.6331414724729298}, {"type": "position", "time": 20676, "x": 0.7973187913649895, "y": 0.6331414724729298}, {"type": "position", "time": 20726, "x": 0.7973187913649895, "y": 0.6331414724729298}, {"type": "position", "time": 20776, "x": 0.7973187913649895, "y": 0.6331414724729298}, {"type": "position", "time": 20826, "x": 0.7973187913649895, "y": 0.6331414724729298}, {"type": "position", "time": 20876, "x": 0.7973187913649895, "y": 0.6331414724729298}, {"type": "position", "time": 20926, "x": 0.7973187913649895, "y": 0.6331414724729298}, {"type": "position", "time": 20976, "x": 0.7973187913649895, "y": 0.6331414724729298}, {"type": "position", "time": 21026, "x": 0.7973187913649895, "y": 0.6331414724729298}, {"type": "position", "time": 21076, "x": 0.7973187913649895, "y": 0.6331414724729298}, {"type": "position", "time": 21126, "x": 0.7973187913649895, "y": 0.6331414724729298}, {"type": "position", "time": 21176, "x": 0.7973187913649895, "y": 0.6331414724729298}, {"type": "position", "time": 21226, "x": 0.7973187913649895, "y": 0.6331414724729298}, {"type": "position", "time": 21277, "x": 0.7973187913649895, "y": 0.6331414724729298}, {"type": "position", "time": 21326, "x": 0.7973187913649895, "y": 0.6331414724729298}, {"type": "position", "time": 21376, "x": 0.7973187913649895, "y": 0.6331414724729298}, {"type": "position", "time": 21426, "x": 0.7973187913649895, "y": 0.6331414724729298}, {"type": "position", "time": 21476, "x": 0.7973187913649895, "y": 0.6331414724729298}, {"type": "position", "time": 21526, "x": 0.7973187913649895, "y": 0.6331414724729298}, {"type": "position", "time": 21576, "x": 0.7973187913649895, "y": 0.6331414724729298}, {"type": "position", "time": 21627, "x": 0.7998182233128421, "y": 0.6331414724729298}, {"type": "position", "time": 21681, "x": 0.8098159511042526, "y": 0.6381399577819267}, {"type": "position", "time": 21731, "x": 0.8185639629217368, "y": 0.6448046048605891}, {"type": "position", "time": 21781, "x": 0.8235628268174421, "y": 0.6514692519392515}, {"type": "position", "time": 21827, "x": 0.8235628268174421, "y": 0.6581338990179139}, {"type": "position", "time": 21876, "x": 0.8235628268174421, "y": 0.6681308696359075}, {"type": "position", "time": 21931, "x": 0.8185639629217368, "y": 0.6797940020235668}, {"type": "position", "time": 21981, "x": 0.8173142469478105, "y": 0.6847924873325636}, {"type": "position", "time": 22031, "x": 0.8148148149999579, "y": 0.6931232961808916}, {"type": "position", "time": 22081, "x": 0.8135650990260316, "y": 0.6981217814898885}, {"type": "position", "time": 22131, "x": 0.8135650990260316, "y": 0.6997879432595541}, {"type": "position", "time": 22182, "x": 0.8135650990260316, "y": 0.6997879432595541}, {"type": "position", "time": 22231, "x": 0.8135650990260316, "y": 0.7031202667988853}, {"type": "position", "time": 22276, "x": 0.8135650990260316, "y": 0.7031202667988853}, {"type": "position", "time": 22326, "x": 0.8123153830521053, "y": 0.7031202667988853}, {"type": "position", "time": 22376, "x": 0.8123153830521053, "y": 0.7031202667988853}, {"type": "position", "time": 22426, "x": 0.8123153830521053, "y": 0.7031202667988853}, {"type": "click", "time": 22470, "x": 0.8123153830521053, "y": 0.7031202667988853}, {"type": "position", "time": 22476, "x": 0.8123153830521053, "y": 0.7031202667988853}, {"type": "position", "time": 22526, "x": 0.8123153830521053, "y": 0.7031202667988853}, {"type": "position", "time": 22576, "x": 0.8123153830521053, "y": 0.7031202667988853}, {"type": "position", "time": 22626, "x": 0.8123153830521053, "y": 0.7031202667988853}, {"type": "position", "time": 22676, "x": 0.8123153830521053, "y": 0.7031202667988853}, {"type": "position", "time": 22726, "x": 0.8123153830521053, "y": 0.7031202667988853}, {"type": "position", "time": 22776, "x": 0.8123153830521053, "y": 0.7031202667988853}, {"type": "position", "time": 22826, "x": 0.8123153830521053, "y": 0.7031202667988853}, {"type": "position", "time": 22876, "x": 0.8123153830521053, "y": 0.7031202667988853}, {"type": "position", "time": 22926, "x": 0.8148148149999579, "y": 0.7031202667988853}, {"type": "position", "time": 22976, "x": 0.8160645309738842, "y": 0.7014541050292197}, {"type": "position", "time": 23026, "x": 0.8160645309738842, "y": 0.7014541050292197}, {"type": "position", "time": 23076, "x": 0.8160645309738842, "y": 0.7014541050292197}, {"type": "click", "time": 23089, "x": 0.8160645309738842, "y": 0.7014541050292197}, {"type": "position", "time": 23126, "x": 0.8160645309738842, "y": 0.7014541050292197}, {"type": "position", "time": 23176, "x": 0.8160645309738842, "y": 0.7014541050292197}, {"type": "position", "time": 23228, "x": 0.8160645309738842, "y": 0.7014541050292197}, {"type": "position", "time": 23277, "x": 0.8160645309738842, "y": 0.7014541050292197}, {"type": "position", "time": 23326, "x": 0.8160645309738842, "y": 0.7014541050292197}, {"type": "position", "time": 23378, "x": 0.8185639629217368, "y": 0.6997879432595541}, {"type": "position", "time": 23426, "x": 0.8235628268174421, "y": 0.6981217814898885}, {"type": "position", "time": 23476, "x": 0.8260622587652947, "y": 0.6947894579505572}, {"type": "position", "time": 23526, "x": 0.8260622587652947, "y": 0.6947894579505572}, {"type": "position", "time": 23576, "x": 0.8260622587652947, "y": 0.6947894579505572}, {"type": "slider", "time": 23594, "value": 0.5}, {"type": "click", "time": 23600, "x": 0.8260622587652947, "y": 0.6947894579505572}, {"type": "position", "time": 23626, "x": 0.8260622587652947, "y": 0.6947894579505572}, {"type": "position", "time": 23676, "x": 0.8260622587652947, "y": 0.6947894579505572}, {"type": "position", "time": 23726, "x": 0.8260622587652947, "y": 0.6947894579505572}, {"type": "position", "time": 23776, "x": 0.8260622587652947, "y": 0.6947894579505572}, {"type": "position", "time": 23826, "x": 0.8260622587652947, "y": 0.6947894579505572}, {"type": "position", "time": 23881, "x": 0.8235628268174421, "y": 0.71644956095621}, {"type": "position", "time": 23930, "x": 0.8185639629217368, "y": 0.746440472810191}, {"type": "position", "time": 23980, "x": 0.8173142469478105, "y": 0.7647682522765126}, {"type": "position", "time": 24034, "x": 0.8160645309738842, "y": 0.7747652228945062}, {"type": "position", "time": 24080, "x": 0.8148148149999579, "y": 0.779763708203503}, {"type": "position", "time": 24126, "x": 0.8148148149999579, "y": 0.779763708203503}, {"type": "position", "time": 24176, "x": 0.8148148149999579, "y": 0.779763708203503}, {"type": "click", "time": 24240, "x": 0.8148148149999579, "y": 0.779763708203503}, {"type": "position", "time": 24247, "x": 0.8148148149999579, "y": 0.779763708203503}, {"type": "position", "time": 24276, "x": 0.8148148149999579, "y": 0.779763708203503}, {"type": "position", "time": 24326, "x": 0.8148148149999579, "y": 0.779763708203503}, {"type": "position", "time": 24377, "x": 0.8148148149999579, "y": 0.779763708203503}, {"type": "position", "time": 24427, "x": 0.8148148149999579, "y": 0.779763708203503}, {"type": "position", "time": 24477, "x": 0.8148148149999579, "y": 0.779763708203503}, {"type": "position", "time": 24527, "x": 0.8148148149999579, "y": 0.779763708203503}, {"type": "position", "time": 24577, "x": 0.8148148149999579, "y": 0.779763708203503}, {"type": "position", "time": 24627, "x": 0.8148148149999579, "y": 0.779763708203503}, {"type": "position", "time": 24677, "x": 0.8148148149999579, "y": 0.779763708203503}, {"type": "position", "time": 24727, "x": 0.8148148149999579, "y": 0.779763708203503}, {"type": "position", "time": 24777, "x": 0.8148148149999579, "y": 0.779763708203503}, {"type": "position", "time": 24827, "x": 0.8148148149999579, "y": 0.779763708203503}, {"type": "position", "time": 24877, "x": 0.8148148149999579, "y": 0.779763708203503}, {"type": "position", "time": 24926, "x": 0.8148148149999579, "y": 0.779763708203503}, {"type": "position", "time": 24977, "x": 0.8148148149999579, "y": 0.779763708203503}, {"type": "position", "time": 25027, "x": 0.8148148149999579, "y": 0.779763708203503}, {"type": "position", "time": 25077, "x": 0.8148148149999579, "y": 0.779763708203503}, {"type": "position", "time": 25127, "x": 0.8148148149999579, "y": 0.779763708203503}, {"type": "position", "time": 25177, "x": 0.8148148149999579, "y": 0.779763708203503}, {"type": "position", "time": 25227, "x": 0.8148148149999579, "y": 0.779763708203503}, {"type": "position", "time": 25277, "x": 0.8148148149999579, "y": 0.779763708203503}, {"type": "position", "time": 25327, "x": 0.8148148149999579, "y": 0.779763708203503}, {"type": "position", "time": 25377, "x": 0.8148148149999579, "y": 0.779763708203503}, {"type": "position", "time": 25427, "x": 0.8148148149999579, "y": 0.779763708203503}, {"type": "position", "time": 25477, "x": 0.8148148149999579, "y": 0.779763708203503}, {"type": "position", "time": 25527, "x": 0.8148148149999579, "y": 0.779763708203503}, {"type": "position", "time": 25577, "x": 0.8148148149999579, "y": 0.779763708203503}, {"type": "position", "time": 25635, "x": 0.8098159511042526, "y": 0.7614359287371815}, {"type": "position", "time": 25684, "x": 0.7685753239646842, "y": 0.6664647078662419}, {"type": "position", "time": 25731, "x": 0.7310838447468947, "y": 0.5748258105346337}, {"type": "position", "time": 25780, "x": 0.7248352648772631, "y": 0.5698273252256368}, {"type": "position", "time": 25830, "x": 0.7235855489033368, "y": 0.5698273252256368}, {"type": "position", "time": 25876, "x": 0.7235855489033368, "y": 0.5698273252256368}, {"type": "position", "time": 25928, "x": 0.712338105138, "y": 0.5681611634559712}, {"type": "position", "time": 25979, "x": 0.7023403773465895, "y": 0.5698273252256368}, {"type": "position", "time": 26030, "x": 0.6998409453987369, "y": 0.5714934869953024}, {"type": "position", "time": 26081, "x": 0.6985912294248106, "y": 0.5714934869953024}, {"type": "position", "time": 26130, "x": 0.6960917974769579, "y": 0.5748258105346337}, {"type": "position", "time": 26180, "x": 0.6910929335812527, "y": 0.5814904576132961}, {"type": "position", "time": 26230, "x": 0.6873437856594737, "y": 0.5848227811526273}, {"type": "position", "time": 26280, "x": 0.6873437856594737, "y": 0.5881551046919585}, {"type": "position", "time": 26326, "x": 0.6873437856594737, "y": 0.5898212664616241}, {"type": "position", "time": 26377, "x": 0.6873437856594737, "y": 0.5898212664616241}, {"type": "position", "time": 26426, "x": 0.6873437856594737, "y": 0.5898212664616241}, {"type": "position", "time": 26476, "x": 0.6873437856594737, "y": 0.5898212664616241}, {"type": "position", "time": 26527, "x": 0.6873437856594737, "y": 0.5898212664616241}, {"type": "position", "time": 26576, "x": 0.6873437856594737, "y": 0.5898212664616241}, {"type": "position", "time": 26627, "x": 0.6873437856594737, "y": 0.5898212664616241}, {"type": "position", "time": 26676, "x": 0.6873437856594737, "y": 0.5898212664616241}, {"type": "position", "time": 26727, "x": 0.6873437856594737, "y": 0.5898212664616241}, {"type": "position", "time": 26776, "x": 0.6873437856594737, "y": 0.5898212664616241}, {"type": "position", "time": 26826, "x": 0.6873437856594737, "y": 0.5898212664616241}, {"type": "position", "time": 26876, "x": 0.6873437856594737, "y": 0.5898212664616241}, {"type": "position", "time": 26926, "x": 0.6873437856594737, "y": 0.5898212664616241}, {"type": "position", "time": 26976, "x": 0.6873437856594737, "y": 0.5898212664616241}, {"type": "position", "time": 27026, "x": 0.6873437856594737, "y": 0.5898212664616241}, {"type": "position", "time": 27077, "x": 0.6873437856594737, "y": 0.5898212664616241}, {"type": "position", "time": 27127, "x": 0.6873437856594737, "y": 0.5898212664616241}, {"type": "position", "time": 27177, "x": 0.6873437856594737, "y": 0.5898212664616241}, {"type": "position", "time": 27226, "x": 0.6873437856594737, "y": 0.5898212664616241}, {"type": "position", "time": 27276, "x": 0.6873437856594737, "y": 0.5898212664616241}, {"type": "position", "time": 27326, "x": 0.6873437856594737, "y": 0.5898212664616241}, {"type": "position", "time": 27376, "x": 0.6873437856594737, "y": 0.5898212664616241}, {"type": "position", "time": 27427, "x": 0.6873437856594737, "y": 0.5898212664616241}, {"type": "position", "time": 27477, "x": 0.6873437856594737, "y": 0.5898212664616241}, {"type": "position", "time": 27526, "x": 0.6873437856594737, "y": 0.5898212664616241}, {"type": "position", "time": 27577, "x": 0.6873437856594737, "y": 0.5898212664616241}, {"type": "position", "time": 27627, "x": 0.6873437856594737, "y": 0.5898212664616241}, {"type": "position", "time": 27676, "x": 0.6873437856594737, "y": 0.5898212664616241}, {"type": "position", "time": 27727, "x": 0.6873437856594737, "y": 0.5898212664616241}, {"type": "position", "time": 27777, "x": 0.6873437856594737, "y": 0.5898212664616241}, {"type": "position", "time": 27827, "x": 0.6873437856594737, "y": 0.5898212664616241}, {"type": "position", "time": 27877, "x": 0.6873437856594737, "y": 0.5898212664616241}, {"type": "position", "time": 27927, "x": 0.6873437856594737, "y": 0.5898212664616241}, {"type": "position", "time": 27977, "x": 0.6873437856594737, "y": 0.5898212664616241}, {"type": "position", "time": 28027, "x": 0.6873437856594737, "y": 0.5898212664616241}, {"type": "position", "time": 28077, "x": 0.6873437856594737, "y": 0.5898212664616241}, {"type": "position", "time": 28127, "x": 0.6873437856594737, "y": 0.5898212664616241}, {"type": "position", "time": 28176, "x": 0.6873437856594737, "y": 0.5898212664616241}, {"type": "position", "time": 28227, "x": 0.6873437856594737, "y": 0.5898212664616241}, {"type": "position", "time": 28277, "x": 0.6873437856594737, "y": 0.5898212664616241}, {"type": "position", "time": 28326, "x": 0.6873437856594737, "y": 0.5898212664616241}, {"type": "position", "time": 28376, "x": 0.6873437856594737, "y": 0.5898212664616241}, {"type": "position", "time": 28426, "x": 0.6873437856594737, "y": 0.5898212664616241}, {"type": "position", "time": 28476, "x": 0.6873437856594737, "y": 0.5898212664616241}, {"type": "position", "time": 28526, "x": 0.6873437856594737, "y": 0.5898212664616241}, {"type": "position", "time": 28576, "x": 0.6873437856594737, "y": 0.5898212664616241}, {"type": "position", "time": 28627, "x": 0.6873437856594737, "y": 0.5898212664616241}, {"type": "position", "time": 28677, "x": 0.6873437856594737, "y": 0.5898212664616241}, {"type": "position", "time": 28727, "x": 0.6873437856594737, "y": 0.5898212664616241}, {"type": "position", "time": 28776, "x": 0.6873437856594737, "y": 0.5898212664616241}, {"type": "position", "time": 28826, "x": 0.6873437856594737, "y": 0.5898212664616241}, {"type": "position", "time": 28876, "x": 0.6873437856594737, "y": 0.5898212664616241}, {"type": "position", "time": 28927, "x": 0.6873437856594737, "y": 0.5898212664616241}, {"type": "position", "time": 28977, "x": 0.6873437856594737, "y": 0.5898212664616241}, {"type": "position", "time": 29027, "x": 0.6873437856594737, "y": 0.5898212664616241}, {"type": "position", "time": 29077, "x": 0.6873437856594737, "y": 0.5898212664616241}, {"type": "position", "time": 29127, "x": 0.6873437856594737, "y": 0.5898212664616241}, {"type": "position", "time": 29177, "x": 0.6873437856594737, "y": 0.5898212664616241}, {"type": "position", "time": 29227, "x": 0.6873437856594737, "y": 0.5898212664616241}, {"type": "position", "time": 29276, "x": 0.6873437856594737, "y": 0.5898212664616241}, {"type": "position", "time": 29326, "x": 0.6873437856594737, "y": 0.5898212664616241}, {"type": "position", "time": 29377, "x": 0.6873437856594737, "y": 0.5898212664616241}, {"type": "position", "time": 29426, "x": 0.6873437856594737, "y": 0.5898212664616241}, {"type": "position", "time": 29477, "x": 0.6873437856594737, "y": 0.5898212664616241}, {"type": "position", "time": 29526, "x": 0.6873437856594737, "y": 0.5898212664616241}, {"type": "position", "time": 29577, "x": 0.6873437856594737, "y": 0.5898212664616241}, {"type": "position", "time": 29627, "x": 0.6873437856594737, "y": 0.5898212664616241}, {"type": "position", "time": 29677, "x": 0.6873437856594737, "y": 0.5898212664616241}, {"type": "position", "time": 29727, "x": 0.6873437856594737, "y": 0.5898212664616241}, {"type": "position", "time": 29776, "x": 0.6873437856594737, "y": 0.5898212664616241}, {"type": "position", "time": 29827, "x": 0.6873437856594737, "y": 0.5898212664616241}, {"type": "position", "time": 29877, "x": 0.6873437856594737, "y": 0.5898212664616241}, {"type": "position", "time": 29926, "x": 0.6873437856594737, "y": 0.5898212664616241}, {"type": "position", "time": 29976, "x": 0.6873437856594737, "y": 0.5898212664616241}, {"type": "position", "time": 30026, "x": 0.6873437856594737, "y": 0.5898212664616241}, {"type": "position", "time": 30077, "x": 0.6873437856594737, "y": 0.5898212664616241}, {"type": "position", "time": 30126, "x": 0.6873437856594737, "y": 0.5898212664616241}, {"type": "position", "time": 30176, "x": 0.6873437856594737, "y": 0.5898212664616241}, {"type": "position", "time": 30226, "x": 0.6873437856594737, "y": 0.5898212664616241}, {"type": "position", "time": 30276, "x": 0.6873437856594737, "y": 0.5898212664616241}, {"type": "position", "time": 30327, "x": 0.6873437856594737, "y": 0.5898212664616241}, {"type": "position", "time": 30376, "x": 0.6873437856594737, "y": 0.5898212664616241}, {"type": "position", "time": 30426, "x": 0.6873437856594737, "y": 0.5898212664616241}, {"type": "position", "time": 30476, "x": 0.6873437856594737, "y": 0.5898212664616241}, {"type": "position", "time": 30526, "x": 0.6873437856594737, "y": 0.5898212664616241}, {"type": "position", "time": 30576, "x": 0.6873437856594737, "y": 0.5898212664616241}, {"type": "position", "time": 30633, "x": 0.7035900933205158, "y": 0.5831566193829617}, {"type": "position", "time": 30678, "x": 0.7648261760429053, "y": 0.5698273252256368}, {"type": "position", "time": 30728, "x": 0.7810724837039473, "y": 0.5698273252256368}, {"type": "position", "time": 30778, "x": 0.7998182233128421, "y": 0.5714934869953024}, {"type": "position", "time": 30828, "x": 0.8073165191564, "y": 0.5714934869953024}, {"type": "position", "time": 30878, "x": 0.811065667078179, "y": 0.573159648764968}, {"type": "position", "time": 30928, "x": 0.8123153830521053, "y": 0.5781581340739649}, {"type": "position", "time": 30978, "x": 0.8160645309738842, "y": 0.5864889429222929}, {"type": "position", "time": 31031, "x": 0.8173142469478105, "y": 0.5931535900009554}, {"type": "position", "time": 31078, "x": 0.8185639629217368, "y": 0.5964859135402866}, {"type": "position", "time": 31132, "x": 0.8185639629217368, "y": 0.5964859135402866}, {"type": "position", "time": 31178, "x": 0.8210633948695895, "y": 0.5998182370796178}, {"type": "position", "time": 31227, "x": 0.8210633948695895, "y": 0.5998182370796178}, {"type": "position", "time": 31277, "x": 0.8210633948695895, "y": 0.5998182370796178}, {"type": "position", "time": 31327, "x": 0.8210633948695895, "y": 0.5998182370796178}, {"type": "slider", "time": 31332, "value": 0.5}, {"type": "click", "time": 31337, "x": 0.8210633948695895, "y": 0.5998182370796178}, {"type": "position", "time": 31376, "x": 0.8210633948695895, "y": 0.5998182370796178}, {"type": "position", "time": 31427, "x": 0.8210633948695895, "y": 0.5998182370796178}, {"type": "position", "time": 31477, "x": 0.8210633948695895, "y": 0.5998182370796178}, {"type": "position", "time": 31527, "x": 0.8210633948695895, "y": 0.5998182370796178}, {"type": "position", "time": 31577, "x": 0.8210633948695895, "y": 0.5998182370796178}, {"type": "position", "time": 31627, "x": 0.8210633948695895, "y": 0.5998182370796178}, {"type": "position", "time": 31677, "x": 0.8210633948695895, "y": 0.5998182370796178}, {"type": "position", "time": 31727, "x": 0.8210633948695895, "y": 0.5998182370796178}, {"type": "position", "time": 31777, "x": 0.8210633948695895, "y": 0.5998182370796178}, {"type": "position", "time": 31827, "x": 0.8210633948695895, "y": 0.5998182370796178}, {"type": "position", "time": 31877, "x": 0.8210633948695895, "y": 0.5998182370796178}, {"type": "position", "time": 31927, "x": 0.8210633948695895, "y": 0.5998182370796178}, {"type": "position", "time": 31977, "x": 0.8210633948695895, "y": 0.5998182370796178}, {"type": "position", "time": 32027, "x": 0.8210633948695895, "y": 0.5998182370796178}, {"type": "position", "time": 32077, "x": 0.8210633948695895, "y": 0.5998182370796178}, {"type": "position", "time": 32127, "x": 0.8210633948695895, "y": 0.5998182370796178}, {"type": "position", "time": 32184, "x": 0.8198136788956631, "y": 0.6014843988492834}, {"type": "position", "time": 32231, "x": 0.8185639629217368, "y": 0.6098152076976113}, {"type": "position", "time": 32284, "x": 0.8185639629217368, "y": 0.6164798547762738}, {"type": "position", "time": 32330, "x": 0.8185639629217368, "y": 0.619812178315605}, {"type": "position", "time": 32378, "x": 0.8185639629217368, "y": 0.619812178315605}, {"type": "position", "time": 32427, "x": 0.8185639629217368, "y": 0.619812178315605}, {"type": "position", "time": 32476, "x": 0.8185639629217368, "y": 0.619812178315605}, {"type": "position", "time": 32527, "x": 0.8185639629217368, "y": 0.619812178315605}, {"type": "position", "time": 32577, "x": 0.8185639629217368, "y": 0.619812178315605}, {"type": "position", "time": 32627, "x": 0.8185639629217368, "y": 0.619812178315605}, {"type": "position", "time": 32676, "x": 0.8185639629217368, "y": 0.619812178315605}, {"type": "position", "time": 32726, "x": 0.8185639629217368, "y": 0.619812178315605}, {"type": "position", "time": 32778, "x": 0.8198136788956631, "y": 0.619812178315605}, {"type": "position", "time": 32829, "x": 0.8235628268174421, "y": 0.6214783400852706}, {"type": "position", "time": 32878, "x": 0.8248125427913684, "y": 0.6214783400852706}, {"type": "position", "time": 32928, "x": 0.8260622587652947, "y": 0.6214783400852706}, {"type": "position", "time": 32979, "x": 0.827311974739221, "y": 0.6248106636246018}, {"type": "position", "time": 33028, "x": 0.827311974739221, "y": 0.6264768253942674}, {"type": "position", "time": 33077, "x": 0.827311974739221, "y": 0.6264768253942674}, {"type": "position", "time": 33126, "x": 0.827311974739221, "y": 0.6264768253942674}, {"type": "position", "time": 33183, "x": 0.8285616907131473, "y": 0.6264768253942674}, {"type": "position", "time": 33261, "x": 0.8323108386349263, "y": 0.6331414724729298}, {"type": "position", "time": 33282, "x": 0.8348102705827789, "y": 0.6381399577819267}, {"type": "position", "time": 33378, "x": 0.8373097025306316, "y": 0.6448046048605891}, {"type": "position", "time": 33428, "x": 0.8435582824002632, "y": 0.6498030901695859}, {"type": "position", "time": 33485, "x": 0.8435582824002632, "y": 0.6498030901695859}, {"type": "position", "time": 33528, "x": 0.8360599865567052, "y": 0.6548015754785828}, {"type": "position", "time": 33578, "x": 0.6985912294248106, "y": 0.6864586491022292}, {"type": "position", "time": 33628, "x": 0.6323562828067157, "y": 0.7114510756472132}, {"type": "position", "time": 33677, "x": 0.6173596911196, "y": 0.7231142080348725}, {"type": "position", "time": 33727, "x": 0.5723699160582526, "y": 0.7597697669675159}, {"type": "position", "time": 33777, "x": 0.549875028527579, "y": 0.771432899355175}, {"type": "position", "time": 33828, "x": 0.5411270167100948, "y": 0.7780975464338374}, {"type": "position", "time": 33879, "x": 0.5273801409969052, "y": 0.7814298699731687}, {"type": "position", "time": 33927, "x": 0.5236309930751263, "y": 0.7830960317428343}, {"type": "position", "time": 33978, "x": 0.5198818451533473, "y": 0.7830960317428343}, {"type": "position", "time": 34027, "x": 0.5223812771012, "y": 0.7780975464338374}, {"type": "position", "time": 34078, "x": 0.5273801409969052, "y": 0.7681005758158438}, {"type": "position", "time": 34131, "x": 0.5323790048926106, "y": 0.7647682522765126}, {"type": "position", "time": 34177, "x": 0.5361281528143895, "y": 0.7597697669675159}, {"type": "position", "time": 34227, "x": 0.5386275847622422, "y": 0.7581036051978502}, {"type": "position", "time": 34276, "x": 0.5398773007361685, "y": 0.7564374434281846}, {"type": "position", "time": 34327, "x": 0.5398773007361685, "y": 0.7564374434281846}, {"type": "position", "time": 34377, "x": 0.5398773007361685, "y": 0.7564374434281846}, {"type": "click", "time": 34406, "x": 0.5398773007361685, "y": 0.7564374434281846}, {"type": "position", "time": 34427, "x": 0.5398773007361685, "y": 0.7564374434281846}, {"type": "position", "time": 34477, "x": 0.5398773007361685, "y": 0.7564374434281846}, {"type": "position", "time": 34527, "x": 0.5398773007361685, "y": 0.7564374434281846}, {"type": "position", "time": 34577, "x": 0.5398773007361685, "y": 0.7564374434281846}, {"type": "position", "time": 34627, "x": 0.5398773007361685, "y": 0.7564374434281846}, {"type": "position", "time": 34677, "x": 0.5398773007361685, "y": 0.7564374434281846}, {"type": "position", "time": 34727, "x": 0.5398773007361685, "y": 0.7564374434281846}, {"type": "position", "time": 34777, "x": 0.5398773007361685, "y": 0.7564374434281846}, {"type": "position", "time": 34827, "x": 0.5398773007361685, "y": 0.7564374434281846}, {"type": "position", "time": 34884, "x": 0.5473755965797263, "y": 0.7531051198888534}, {"type": "position", "time": 34928, "x": 0.6486025904677579, "y": 0.7214480462652069}, {"type": "position", "time": 34978, "x": 0.7048398092944421, "y": 0.7081187521078821}, {"type": "position", "time": 35027, "x": 0.7498295843557895, "y": 0.7064525903382165}, {"type": "position", "time": 35077, "x": 0.763576460068979, "y": 0.7081187521078821}, {"type": "position", "time": 35127, "x": 0.7760736198082421, "y": 0.7081187521078821}, {"type": "position", "time": 35177, "x": 0.7835719156518, "y": 0.7064525903382165}, {"type": "position", "time": 35227, "x": 0.7885707795475053, "y": 0.7047864285685509}, {"type": "position", "time": 35277, "x": 0.7973187913649895, "y": 0.6997879432595541}, {"type": "position", "time": 35330, "x": 0.7998182233128421, "y": 0.6997879432595541}, {"type": "position", "time": 35377, "x": 0.8035673712346211, "y": 0.6997879432595541}, {"type": "position", "time": 35427, "x": 0.8035673712346211, "y": 0.6997879432595541}, {"type": "position", "time": 35477, "x": 0.8035673712346211, "y": 0.6997879432595541}, {"type": "position", "time": 35527, "x": 0.8035673712346211, "y": 0.6997879432595541}, {"type": "position", "time": 35577, "x": 0.8035673712346211, "y": 0.6997879432595541}, {"type": "position", "time": 35627, "x": 0.8035673712346211, "y": 0.6997879432595541}, {"type": "click", "time": 35665, "x": 0.8035673712346211, "y": 0.6997879432595541}, {"type": "position", "time": 35677, "x": 0.8035673712346211, "y": 0.6997879432595541}, {"type": "position", "time": 35727, "x": 0.8035673712346211, "y": 0.6997879432595541}, {"type": "position", "time": 35777, "x": 0.8035673712346211, "y": 0.6997879432595541}, {"type": "position", "time": 35827, "x": 0.8035673712346211, "y": 0.6997879432595541}, {"type": "position", "time": 35877, "x": 0.8035673712346211, "y": 0.6997879432595541}, {"type": "position", "time": 35927, "x": 0.8035673712346211, "y": 0.6997879432595541}, {"type": "position", "time": 35977, "x": 0.8035673712346211, "y": 0.6997879432595541}, {"type": "position", "time": 36028, "x": 0.8035673712346211, "y": 0.6997879432595541}, {"type": "position", "time": 36077, "x": 0.8035673712346211, "y": 0.6997879432595541}, {"type": "position", "time": 36127, "x": 0.8035673712346211, "y": 0.6997879432595541}, {"type": "position", "time": 36177, "x": 0.8035673712346211, "y": 0.6997879432595541}, {"type": "position", "time": 36227, "x": 0.8035673712346211, "y": 0.6997879432595541}, {"type": "position", "time": 36277, "x": 0.8035673712346211, "y": 0.6997879432595541}, {"type": "position", "time": 36327, "x": 0.8035673712346211, "y": 0.6997879432595541}, {"type": "position", "time": 36377, "x": 0.8035673712346211, "y": 0.6997879432595541}, {"type": "position", "time": 36428, "x": 0.7785730517560947, "y": 0.6847924873325636}, {"type": "position", "time": 36479, "x": 0.7248352648772631, "y": 0.6631323843269107}, {"type": "position", "time": 36528, "x": 0.7135878211119263, "y": 0.6581338990179139}, {"type": "position", "time": 36577, "x": 0.712338105138, "y": 0.6581338990179139}, {"type": "position", "time": 36627, "x": 0.712338105138, "y": 0.6581338990179139}, {"type": "position", "time": 36677, "x": 0.712338105138, "y": 0.6581338990179139}, {"type": "position", "time": 36727, "x": 0.712338105138, "y": 0.6581338990179139}, {"type": "position", "time": 36777, "x": 0.712338105138, "y": 0.6581338990179139}, {"type": "position", "time": 36827, "x": 0.712338105138, "y": 0.6581338990179139}, {"type": "position", "time": 36877, "x": 0.712338105138, "y": 0.6581338990179139}, {"type": "position", "time": 36927, "x": 0.712338105138, "y": 0.6581338990179139}, {"type": "position", "time": 36977, "x": 0.712338105138, "y": 0.6581338990179139}, {"type": "position", "time": 37027, "x": 0.712338105138, "y": 0.6581338990179139}, {"type": "position", "time": 37077, "x": 0.712338105138, "y": 0.6581338990179139}, {"type": "position", "time": 37127, "x": 0.712338105138, "y": 0.6581338990179139}, {"type": "position", "time": 37177, "x": 0.712338105138, "y": 0.6581338990179139}, {"type": "position", "time": 37227, "x": 0.712338105138, "y": 0.6581338990179139}, {"type": "position", "time": 37277, "x": 0.712338105138, "y": 0.6581338990179139}, {"type": "position", "time": 37327, "x": 0.712338105138, "y": 0.6581338990179139}, {"type": "position", "time": 37377, "x": 0.712338105138, "y": 0.6581338990179139}, {"type": "position", "time": 37427, "x": 0.712338105138, "y": 0.6581338990179139}, {"type": "position", "time": 37477, "x": 0.712338105138, "y": 0.6581338990179139}, {"type": "position", "time": 37527, "x": 0.712338105138, "y": 0.6581338990179139}, {"type": "position", "time": 37577, "x": 0.712338105138, "y": 0.6581338990179139}, {"type": "position", "time": 37627, "x": 0.712338105138, "y": 0.6581338990179139}, {"type": "position", "time": 37677, "x": 0.712338105138, "y": 0.6581338990179139}, {"type": "position", "time": 37727, "x": 0.712338105138, "y": 0.6581338990179139}, {"type": "position", "time": 37777, "x": 0.712338105138, "y": 0.6581338990179139}, {"type": "position", "time": 37827, "x": 0.712338105138, "y": 0.6581338990179139}, {"type": "position", "time": 37877, "x": 0.712338105138, "y": 0.6581338990179139}, {"type": "position", "time": 37927, "x": 0.712338105138, "y": 0.6581338990179139}, {"type": "position", "time": 37977, "x": 0.712338105138, "y": 0.6581338990179139}, {"type": "position", "time": 38027, "x": 0.712338105138, "y": 0.6581338990179139}, {"type": "position", "time": 38077, "x": 0.712338105138, "y": 0.6581338990179139}, {"type": "position", "time": 38127, "x": 0.712338105138, "y": 0.6581338990179139}, {"type": "position", "time": 38177, "x": 0.712338105138, "y": 0.6581338990179139}, {"type": "position", "time": 38227, "x": 0.712338105138, "y": 0.6581338990179139}, {"type": "position", "time": 38277, "x": 0.712338105138, "y": 0.6581338990179139}, {"type": "position", "time": 38327, "x": 0.712338105138, "y": 0.6581338990179139}, {"type": "position", "time": 38377, "x": 0.712338105138, "y": 0.6581338990179139}, {"type": "position", "time": 38427, "x": 0.712338105138, "y": 0.6581338990179139}, {"type": "position", "time": 38477, "x": 0.712338105138, "y": 0.6581338990179139}, {"type": "position", "time": 38527, "x": 0.712338105138, "y": 0.6581338990179139}, {"type": "position", "time": 38577, "x": 0.712338105138, "y": 0.6581338990179139}, {"type": "position", "time": 38627, "x": 0.712338105138, "y": 0.6581338990179139}, {"type": "position", "time": 38677, "x": 0.712338105138, "y": 0.6581338990179139}, {"type": "position", "time": 38727, "x": 0.712338105138, "y": 0.6581338990179139}, {"type": "position", "time": 38777, "x": 0.712338105138, "y": 0.6581338990179139}, {"type": "position", "time": 38827, "x": 0.712338105138, "y": 0.6581338990179139}, {"type": "position", "time": 38877, "x": 0.712338105138, "y": 0.6581338990179139}, {"type": "position", "time": 38927, "x": 0.712338105138, "y": 0.6581338990179139}, {"type": "position", "time": 38977, "x": 0.712338105138, "y": 0.6581338990179139}, {"type": "position", "time": 39027, "x": 0.712338105138, "y": 0.6581338990179139}, {"type": "position", "time": 39077, "x": 0.712338105138, "y": 0.6581338990179139}, {"type": "position", "time": 39127, "x": 0.712338105138, "y": 0.6581338990179139}, {"type": "position", "time": 39177, "x": 0.712338105138, "y": 0.6581338990179139}, {"type": "position", "time": 39227, "x": 0.712338105138, "y": 0.6581338990179139}, {"type": "position", "time": 39277, "x": 0.712338105138, "y": 0.6581338990179139}, {"type": "position", "time": 39327, "x": 0.712338105138, "y": 0.6581338990179139}, {"type": "position", "time": 39377, "x": 0.712338105138, "y": 0.6581338990179139}, {"type": "position", "time": 39427, "x": 0.712338105138, "y": 0.6581338990179139}, {"type": "position", "time": 39477, "x": 0.712338105138, "y": 0.6581338990179139}, {"type": "position", "time": 39527, "x": 0.712338105138, "y": 0.6581338990179139}, {"type": "position", "time": 39577, "x": 0.712338105138, "y": 0.6581338990179139}, {"type": "position", "time": 39627, "x": 0.712338105138, "y": 0.6581338990179139}, {"type": "position", "time": 39677, "x": 0.712338105138, "y": 0.6581338990179139}, {"type": "position", "time": 39727, "x": 0.712338105138, "y": 0.6581338990179139}, {"type": "position", "time": 39777, "x": 0.712338105138, "y": 0.6581338990179139}, {"type": "position", "time": 39827, "x": 0.712338105138, "y": 0.6581338990179139}, {"type": "position", "time": 39877, "x": 0.712338105138, "y": 0.6581338990179139}, {"type": "position", "time": 39927, "x": 0.712338105138, "y": 0.6581338990179139}, {"type": "position", "time": 39977, "x": 0.712338105138, "y": 0.6581338990179139}, {"type": "position", "time": 40027, "x": 0.712338105138, "y": 0.6581338990179139}, {"type": "position", "time": 40077, "x": 0.712338105138, "y": 0.6581338990179139}, {"type": "position", "time": 40127, "x": 0.712338105138, "y": 0.6581338990179139}, {"type": "position", "time": 40177, "x": 0.712338105138, "y": 0.6581338990179139}, {"type": "position", "time": 40227, "x": 0.712338105138, "y": 0.6581338990179139}, {"type": "position", "time": 40277, "x": 0.712338105138, "y": 0.6581338990179139}, {"type": "position", "time": 40327, "x": 0.712338105138, "y": 0.6581338990179139}, {"type": "position", "time": 40377, "x": 0.712338105138, "y": 0.6581338990179139}, {"type": "position", "time": 40428, "x": 0.712338105138, "y": 0.6581338990179139}, {"type": "position", "time": 40477, "x": 0.712338105138, "y": 0.6581338990179139}, {"type": "position", "time": 40527, "x": 0.712338105138, "y": 0.6581338990179139}, {"type": "position", "time": 40577, "x": 0.712338105138, "y": 0.6581338990179139}, {"type": "position", "time": 40628, "x": 0.712338105138, "y": 0.6581338990179139}, {"type": "position", "time": 40677, "x": 0.712338105138, "y": 0.6581338990179139}, {"type": "position", "time": 40727, "x": 0.712338105138, "y": 0.6581338990179139}, {"type": "position", "time": 40777, "x": 0.712338105138, "y": 0.6581338990179139}, {"type": "position", "time": 40827, "x": 0.712338105138, "y": 0.6581338990179139}, {"type": "position", "time": 40877, "x": 0.712338105138, "y": 0.6581338990179139}, {"type": "position", "time": 40927, "x": 0.712338105138, "y": 0.6581338990179139}, {"type": "position", "time": 40977, "x": 0.712338105138, "y": 0.6581338990179139}, {"type": "position", "time": 41027, "x": 0.712338105138, "y": 0.6581338990179139}, {"type": "position", "time": 41077, "x": 0.712338105138, "y": 0.6581338990179139}, {"type": "position", "time": 41127, "x": 0.712338105138, "y": 0.6581338990179139}, {"type": "position", "time": 41177, "x": 0.712338105138, "y": 0.6581338990179139}, {"type": "position", "time": 41227, "x": 0.712338105138, "y": 0.6581338990179139}, {"type": "position", "time": 41277, "x": 0.712338105138, "y": 0.6581338990179139}, {"type": "position", "time": 41327, "x": 0.712338105138, "y": 0.6581338990179139}, {"type": "position", "time": 41377, "x": 0.712338105138, "y": 0.6581338990179139}, {"type": "position", "time": 41427, "x": 0.712338105138, "y": 0.6581338990179139}, {"type": "position", "time": 41477, "x": 0.712338105138, "y": 0.6581338990179139}, {"type": "position", "time": 41527, "x": 0.712338105138, "y": 0.6581338990179139}, {"type": "position", "time": 41577, "x": 0.712338105138, "y": 0.6581338990179139}, {"type": "position", "time": 41627, "x": 0.712338105138, "y": 0.6581338990179139}, {"type": "position", "time": 41677, "x": 0.712338105138, "y": 0.6581338990179139}, {"type": "position", "time": 41727, "x": 0.712338105138, "y": 0.6581338990179139}, {"type": "position", "time": 41777, "x": 0.712338105138, "y": 0.6581338990179139}, {"type": "position", "time": 41827, "x": 0.712338105138, "y": 0.6581338990179139}, {"type": "position", "time": 41877, "x": 0.712338105138, "y": 0.6581338990179139}, {"type": "position", "time": 41927, "x": 0.712338105138, "y": 0.6581338990179139}, {"type": "position", "time": 41977, "x": 0.712338105138, "y": 0.6581338990179139}, {"type": "position", "time": 42027, "x": 0.712338105138, "y": 0.6581338990179139}, {"type": "position", "time": 42077, "x": 0.712338105138, "y": 0.6581338990179139}, {"type": "position", "time": 42128, "x": 0.712338105138, "y": 0.6581338990179139}, {"type": "position", "time": 42177, "x": 0.712338105138, "y": 0.6581338990179139}, {"type": "position", "time": 42227, "x": 0.712338105138, "y": 0.6581338990179139}, {"type": "position", "time": 42277, "x": 0.712338105138, "y": 0.6581338990179139}, {"type": "position", "time": 42327, "x": 0.712338105138, "y": 0.6581338990179139}, {"type": "position", "time": 42377, "x": 0.7310838447468947, "y": 0.6448046048605891}, {"type": "position", "time": 42427, "x": 0.7735741878603895, "y": 0.6148136930066082}, {"type": "position", "time": 42477, "x": 0.787321063573579, "y": 0.6081490459279457}, {"type": "position", "time": 42527, "x": 0.7960690753910632, "y": 0.6064828841582801}, {"type": "position", "time": 42577, "x": 0.8035673712346211, "y": 0.603150560618949}, {"type": "position", "time": 42627, "x": 0.8248125427913684, "y": 0.5981520753099522}, {"type": "position", "time": 42677, "x": 0.8348102705827789, "y": 0.594819751770621}, {"type": "position", "time": 42727, "x": 0.8423085664263369, "y": 0.5898212664616241}, {"type": "position", "time": 42777, "x": 0.8498068622698948, "y": 0.5864889429222929}, {"type": "position", "time": 42827, "x": 0.8548057261656, "y": 0.5831566193829617}, {"type": "position", "time": 42877, "x": 0.8548057261656, "y": 0.5831566193829617}, {"type": "position", "time": 42927, "x": 0.8548057261656, "y": 0.5831566193829617}, {"type": "slider", "time": 42974, "value": 0.55}, {"type": "click", "time": 42981, "x": 0.8548057261656, "y": 0.5831566193829617}, {"type": "position", "time": 42986, "x": 0.8548057261656, "y": 0.5831566193829617}, {"type": "position", "time": 43027, "x": 0.8548057261656, "y": 0.5831566193829617}, {"type": "position", "time": 43077, "x": 0.8548057261656, "y": 0.5831566193829617}, {"type": "position", "time": 43127, "x": 0.8548057261656, "y": 0.5831566193829617}, {"type": "position", "time": 43177, "x": 0.8548057261656, "y": 0.5831566193829617}, {"type": "position", "time": 43230, "x": 0.8498068622698948, "y": 0.5981520753099522}, {"type": "position", "time": 43279, "x": 0.8323108386349263, "y": 0.6431384430909235}, {"type": "position", "time": 43327, "x": 0.8235628268174421, "y": 0.6797940020235668}, {"type": "position", "time": 43377, "x": 0.8235628268174421, "y": 0.6847924873325636}, {"type": "position", "time": 43427, "x": 0.8210633948695895, "y": 0.691457134411226}, {"type": "position", "time": 43477, "x": 0.8185639629217368, "y": 0.6997879432595541}, {"type": "position", "time": 43527, "x": 0.8185639629217368, "y": 0.7014541050292197}, {"type": "position", "time": 43577, "x": 0.8185639629217368, "y": 0.7014541050292197}, {"type": "position", "time": 43633, "x": 0.8185639629217368, "y": 0.7014541050292197}, {"type": "click", "time": 43665, "x": 0.8185639629217368, "y": 0.7014541050292197}, {"type": "position", "time": 43677, "x": 0.8185639629217368, "y": 0.7014541050292197}, {"type": "position", "time": 43727, "x": 0.8185639629217368, "y": 0.7014541050292197}, {"type": "position", "time": 43777, "x": 0.8185639629217368, "y": 0.7014541050292197}, {"type": "position", "time": 43827, "x": 0.8185639629217368, "y": 0.7014541050292197}, {"type": "position", "time": 43877, "x": 0.8185639629217368, "y": 0.7014541050292197}, {"type": "position", "time": 43927, "x": 0.8185639629217368, "y": 0.7014541050292197}, {"type": "position", "time": 43977, "x": 0.8185639629217368, "y": 0.7014541050292197}, {"type": "position", "time": 44027, "x": 0.8185639629217368, "y": 0.7014541050292197}, {"type": "position", "time": 44077, "x": 0.8185639629217368, "y": 0.7014541050292197}, {"type": "position", "time": 44127, "x": 0.8248125427913684, "y": 0.691457134411226}, {"type": "position", "time": 44177, "x": 0.8498068622698948, "y": 0.6564677372482484}, {"type": "position", "time": 44227, "x": 0.858554874087379, "y": 0.6381399577819267}, {"type": "position", "time": 44277, "x": 0.8685526018787895, "y": 0.5964859135402866}, {"type": "position", "time": 44327, "x": 0.8723017498005684, "y": 0.5898212664616241}, {"type": "position", "time": 44377, "x": 0.874801181748421, "y": 0.5848227811526273}, {"type": "position", "time": 44427, "x": 0.8773006136962737, "y": 0.5814904576132961}, {"type": "position", "time": 44477, "x": 0.8822994775919789, "y": 0.5781581340739649}, {"type": "position", "time": 44527, "x": 0.8872983414876843, "y": 0.5714934869953024}, {"type": "position", "time": 44577, "x": 0.8885480574616106, "y": 0.5698273252256368}, {"type": "position", "time": 44627, "x": 0.8910474894094632, "y": 0.5664950016863056}, {"type": "position", "time": 44677, "x": 0.8910474894094632, "y": 0.5664950016863056}, {"type": "position", "time": 44727, "x": 0.8910474894094632, "y": 0.5664950016863056}, {"type": "position", "time": 44777, "x": 0.8885480574616106, "y": 0.5664950016863056}, {"type": "position", "time": 44827, "x": 0.8872983414876843, "y": 0.5698273252256368}, {"type": "position", "time": 44877, "x": 0.8822994775919789, "y": 0.5748258105346337}, {"type": "position", "time": 44927, "x": 0.8773006136962737, "y": 0.5814904576132961}, {"type": "position", "time": 44977, "x": 0.874801181748421, "y": 0.5881551046919585}, {"type": "position", "time": 45027, "x": 0.8735514657744947, "y": 0.594819751770621}, {"type": "position", "time": 45077, "x": 0.8698023178527158, "y": 0.5964859135402866}, {"type": "position", "time": 45127, "x": 0.8660531699309368, "y": 0.5998182370796178}, {"type": "position", "time": 45177, "x": 0.8623040220091579, "y": 0.6014843988492834}, {"type": "position", "time": 45227, "x": 0.8560554421395263, "y": 0.6014843988492834}, {"type": "position", "time": 45277, "x": 0.8523062942177474, "y": 0.5998182370796178}, {"type": "position", "time": 45327, "x": 0.8510565782438211, "y": 0.5981520753099522}, {"type": "position", "time": 45377, "x": 0.8510565782438211, "y": 0.5981520753099522}, {"type": "position", "time": 45427, "x": 0.8510565782438211, "y": 0.5981520753099522}, {"type": "slider", "time": 45464, "value": 0.54}, {"type": "click", "time": 45471, "x": 0.8510565782438211, "y": 0.5981520753099522}, {"type": "position", "time": 45477, "x": 0.8510565782438211, "y": 0.5981520753099522}, {"type": "position", "time": 45527, "x": 0.8510565782438211, "y": 0.5981520753099522}, {"type": "position", "time": 45577, "x": 0.8510565782438211, "y": 0.5981520753099522}, {"type": "position", "time": 45627, "x": 0.8510565782438211, "y": 0.5981520753099522}, {"type": "position", "time": 45677, "x": 0.8510565782438211, "y": 0.5981520753099522}, {"type": "position", "time": 45727, "x": 0.8510565782438211, "y": 0.5981520753099522}, {"type": "position", "time": 45777, "x": 0.8510565782438211, "y": 0.5981520753099522}, {"type": "position", "time": 45827, "x": 0.8510565782438211, "y": 0.5981520753099522}, {"type": "position", "time": 45878, "x": 0.8448079983741895, "y": 0.6131475312369425}, {"type": "position", "time": 45927, "x": 0.8373097025306316, "y": 0.628142987163933}, {"type": "position", "time": 45979, "x": 0.827311974739221, "y": 0.6681308696359075}, {"type": "position", "time": 46027, "x": 0.827311974739221, "y": 0.683126325562898}, {"type": "position", "time": 46077, "x": 0.827311974739221, "y": 0.6964556197202229}, {"type": "position", "time": 46127, "x": 0.827311974739221, "y": 0.6981217814898885}, {"type": "position", "time": 46177, "x": 0.827311974739221, "y": 0.6981217814898885}, {"type": "click", "time": 46238, "x": 0.827311974739221, "y": 0.6981217814898885}, {"type": "position", "time": 46245, "x": 0.827311974739221, "y": 0.6981217814898885}, {"type": "position", "time": 46277, "x": 0.827311974739221, "y": 0.6981217814898885}, {"type": "position", "time": 46327, "x": 0.827311974739221, "y": 0.6981217814898885}, {"type": "position", "time": 46377, "x": 0.827311974739221, "y": 0.6981217814898885}, {"type": "position", "time": 46427, "x": 0.827311974739221, "y": 0.6981217814898885}, {"type": "position", "time": 46477, "x": 0.827311974739221, "y": 0.6981217814898885}, {"type": "position", "time": 46536, "x": 0.8298114066870736, "y": 0.6814601637932324}, {"type": "position", "time": 46585, "x": 0.831061122661, "y": 0.6498030901695859}, {"type": "position", "time": 46627, "x": 0.8348102705827789, "y": 0.6248106636246018}, {"type": "position", "time": 46677, "x": 0.8360599865567052, "y": 0.619812178315605}, {"type": "position", "time": 46727, "x": 0.8360599865567052, "y": 0.6164798547762738}, {"type": "position", "time": 46777, "x": 0.8373097025306316, "y": 0.6114813694672769}, {"type": "position", "time": 46827, "x": 0.8410588504524106, "y": 0.603150560618949}, {"type": "position", "time": 46877, "x": 0.8448079983741895, "y": 0.5981520753099522}, {"type": "position", "time": 46927, "x": 0.8460577143481158, "y": 0.5964859135402866}, {"type": "position", "time": 46977, "x": 0.8498068622698948, "y": 0.5964859135402866}, {"type": "position", "time": 47027, "x": 0.8510565782438211, "y": 0.594819751770621}, {"type": "position", "time": 47077, "x": 0.8548057261656, "y": 0.59481975