{"ApprovalTime": "2016-03-10T21:05:27Z", "SubmitTime": "2016-03-10T21:01:51Z", "AssignmentId": "33C7UALJVLYSGIPWAA1UO5V0VYN81K", "HITId": "38G0E1M85M53D7EEUOHN21OJ7HQVU5", "answers": {"data": {"trials": [{"story": "cooking", "time": 71891, "name": "Hannah", "rt": 9491, "blocknum": 0, "qtype": "probability", "response": 0.8, "trialnum": 1, "gender": "female", "qnum": 0}, {"story": "cooking", "time": 71891, "name": "Hannah", "rt": 9491, "blocknum": 0, "qtype": "ungrammatical", "trialnum": 1, "gender": "female", "qnum": 0}, {"story": "cooking", "time": 81729, "name": "Rebecca", "rt": 9836, "blocknum": 0, "qtype": "explanation", "response": "she didn't put effort into it", "trialnum": 2, "gender": "female", "qnum": 1}, {"story": "cooking", "time": 84916, "name": "Rebecca", "rt": 3181, "blocknum": 0, "qtype": "probability", "response": 0.65, "trialnum": 3, "gender": "female", "qnum": 2}, {"story": "cooking", "time": 84916, "name": "Rebecca", "rt": 3181, "blocknum": 0, "qtype": "ungrammatical", "trialnum": 3, "gender": "female", "qnum": 2}, {"story": "cooking", "time": 105235, "name": "Dylan", "rt": 20315, "blocknum": 0, "qtype": "probability", "response": 0.45, "trialnum": 4, "gender": "male", "qnum": 3}, {"story": "cooking", "time": 105235, "name": "Dylan", "rt": 20315, "blocknum": 0, "qtype": "ungrammatical", "response": false, "trialnum": 4, "gender": "male", "qnum": 3}, {"story": "cooking", "time": 121465, "name": "Angela", "rt": 16225, "blocknum": 0, "qtype": "probability", "response": 0.75, "trialnum": 5, "gender": "female", "qnum": 4}, {"story": "cooking", "time": 121465, "name": "Angela", "rt": 16225, "blocknum": 0, "qtype": "ungrammatical", "response": true, "trialnum": 5, "gender": "female", "qnum": 4}, {"story": "cooking", "time": 128334, "name": "Savannah", "rt": 6866, "blocknum": 0, "qtype": "probability", "response": 0.35, "trialnum": 6, "gender": "female", "qnum": 5}, {"story": "cooking", "time": 128334, "name": "Savannah", "rt": 6866, "blocknum": 0, "qtype": "ungrammatical", "response": false, "trialnum": 6, "gender": "female", "qnum": 5}, {"story": "guitar", "time": 139018, "name": "Will", "rt": 10681, "blocknum": 1, "qtype": "probability", "response": 0.83, "trialnum": 8, "gender": "male", "qnum": 0}, {"story": "guitar", "time": 139018, "name": "Will", "rt": 10681, "blocknum": 1, "qtype": "ungrammatical", "trialnum": 8, "gender": "male", "qnum": 0}, {"story": "guitar", "time": 148921, "name": "Tiffany", "rt": 9901, "blocknum": 1, "qtype": "explanation", "response": "she liked covering other peoples' songs", "trialnum": 9, "gender": "female", "qnum": 1}, {"story": "guitar", "time": 151622, "name": "Tiffany", "rt": 2695, "blocknum": 1, "qtype": "probability", "response": 0.68, "trialnum": 10, "gender": "female", "qnum": 2}, {"story": "guitar", "time": 151622, "name": "Tiffany", "rt": 2695, "blocknum": 1, "qtype": "ungrammatical", "trialnum": 10, "gender": "female", "qnum": 2}, {"story": "guitar", "time": 282368, "name": "Olivia", "rt": 130743, "blocknum": 1, "qtype": "probability", "response": 0.8, "trialnum": 11, "gender": "female", "qnum": 3}, {"story": "guitar", "time": 282368, "name": "Olivia", "rt": 130743, "blocknum": 1, "qtype": "ungrammatical", "response": false, "trialnum": 11, "gender": "female", "qnum": 3}, {"story": "guitar", "time": 288332, "name": "Erica", "rt": 5961, "blocknum": 1, "qtype": "probability", "response": 0.8, "trialnum": 12, "gender": "female", "qnum": 4}, {"story": "guitar", "time": 288332, "name": "Erica", "rt": 5961, "blocknum": 1, "qtype": "ungrammatical", "response": false, "trialnum": 12, "gender": "female", "qnum": 4}, {"story": "guitar", "time": 292127, "name": "Lindsey", "rt": 3791, "blocknum": 1, "qtype": "probability", "response": 0.82, "trialnum": 13, "gender": "female", "qnum": 5}, {"story": "guitar", "time": 292127, "name": "Lindsey", "rt": 3791, "blocknum": 1, "qtype": "ungrammatical", "response": false, "trialnum": 13, "gender": "female", "qnum": 5}, {"story": "Japan", "time": 300188, "name": "Erin", "rt": 8057, "blocknum": 2, "qtype": "probability", "response": 0.84, "trialnum": 15, "gender": "female", "qnum": 0}, {"story": "Japan", "time": 300188, "name": "Erin", "rt": 8057, "blocknum": 2, "qtype": "ungrammatical", "trialnum": 15, "gender": "female", "qnum": 0}, {"story": "Japan", "time": 312081, "name": "Emily", "rt": 11892, "blocknum": 2, "qtype": "explanation", "response": "she slept the whole trip", "trialnum": 16, "gender": "female", "qnum": 1}, {"story": "Japan", "time": 318240, "name": "Emily", "rt": 6149, "blocknum": 2, "qtype": "probability", "response": 0.58, "trialnum": 17, "gender": "female", "qnum": 2}, {"story": "Japan", "time": 318240, "name": "Emily", "rt": 6149, "blocknum": 2, "qtype": "ungrammatical", "trialnum": 17, "gender": "female", "qnum": 2}, {"story": "Japan", "time": 322799, "name": "Mark", "rt": 4557, "blocknum": 2, "qtype": "probability", "response": 0.76, "trialnum": 18, "gender": "male", "qnum": 3}, {"story": "Japan", "time": 322799, "name": "Mark", "rt": 4557, "blocknum": 2, "qtype": "ungrammatical", "response": false, "trialnum": 18, "gender": "male", "qnum": 3}, {"story": "Japan", "time": 326858, "name": "Devin", "rt": 4057, "blocknum": 2, "qtype": "probability", "response": 0.88, "trialnum": 19, "gender": "male", "qnum": 4}, {"story": "Japan", "time": 326858, "name": "Devin", "rt": 4057, "blocknum": 2, "qtype": "ungrammatical", "response": false, "trialnum": 19, "gender": "male", "qnum": 4}, {"story": "Japan", "time": 330549, "name": "Nicholas", "rt": 3688, "blocknum": 2, "qtype": "probability", "response": 0.58, "trialnum": 20, "gender": "male", "qnum": 5}, {"story": "Japan", "time": 330549, "name": "Nicholas", "rt": 3688, "blocknum": 2, "qtype": "ungrammatical", "response": false, "trialnum": 20, "gender": "male", "qnum": 5}, {"story": "painting", "time": 335907, "name": "Matthew", "rt": 5354, "blocknum": 3, "qtype": "probability", "response": 0.63, "trialnum": 22, "gender": "male", "qnum": 0}, {"story": "painting", "time": 335907, "name": "Matthew", "rt": 5354, "blocknum": 3, "qtype": "ungrammatical", "trialnum": 22, "gender": "male", "qnum": 0}, {"story": "painting", "time": 345539, "name": "Logan", "rt": 9630, "blocknum": 3, "qtype": "explanation", "response": "he did not pay attention in class", "trialnum": 23, "gender": "male", "qnum": 1}, {"story": "painting", "time": 351751, "name": "Logan", "rt": 6210, "blocknum": 3, "qtype": "probability", "response": 0.64, "trialnum": 24, "gender": "male", "qnum": 2}, {"story": "painting", "time": 351751, "name": "Logan", "rt": 6210, "blocknum": 3, "qtype": "ungrammatical", "trialnum": 24, "gender": "male", "qnum": 2}, {"story": "painting", "time": 355795, "name": "Alyssa", "rt": 4040, "blocknum": 3, "qtype": "probability", "response": 0.65, "trialnum": 25, "gender": "female", "qnum": 3}, {"story": "painting", "time": 355795, "name": "Alyssa", "rt": 4040, "blocknum": 3, "qtype": "ungrammatical", "response": false, "trialnum": 25, "gender": "female", "qnum": 3}, {"story": "painting", "time": 364987, "name": "Christian", "rt": 9189, "blocknum": 3, "qtype": "probability", "response": 0.68, "trialnum": 26, "gender": "male", "qnum": 4}, {"story": "painting", "time": 364987, "name": "Christian", "rt": 9189, "blocknum": 3, "qtype": "ungrammatical", "response": true, "trialnum": 26, "gender": "male", "qnum": 4}, {"story": "painting", "time": 369707, "name": "Juan", "rt": 4718, "blocknum": 3, "qtype": "probability", "response": 0.75, "trialnum": 27, "gender": "male", "qnum": 5}, {"story": "painting", "time": 369707, "name": "Juan", "rt": 4718, "blocknum": 3, "qtype": "ungrammatical", "response": false, "trialnum": 27, "gender": "male", "qnum": 5}, {"story": "beach", "time": 376678, "name": "Victoria", "rt": 6968, "blocknum": 4, "qtype": "probability", "response": 0.74, "trialnum": 29, "gender": "female", "qnum": 0}, {"story": "beach", "time": 376678, "name": "Victoria", "rt": 6968, "blocknum": 4, "qtype": "ungrammatical", "trialnum": 29, "gender": "female", "qnum": 0}, {"story": "beach", "time": 383665, "name": "Vanessa", "rt": 6986, "blocknum": 4, "qtype": "explanation", "response": "she put on sunblock", "trialnum": 30, "gender": "female", "qnum": 1}, {"story": "beach", "time": 455717, "name": "Vanessa", "rt": 72049, "blocknum": 4, "qtype": "probability", "response": 0.7, "trialnum": 31, "gender": "female", "qnum": 2}, {"story": "beach", "time": 455717, "name": "Vanessa", "rt": 72049, "blocknum": 4, "qtype": "ungrammatical", "trialnum": 31, "gender": "female", "qnum": 2}, {"story": "beach", "time": 460776, "name": "Jennifer", "rt": 5054, "blocknum": 4, "qtype": "probability", "response": 0.71, "trialnum": 32, "gender": "female", "qnum": 3}, {"story": "beach", "time": 460776, "name": "Jennifer", "rt": 5054, "blocknum": 4, "qtype": "ungrammatical", "response": false, "trialnum": 32, "gender": "female", "qnum": 3}, {"story": "beach", "time": 464365, "name": "Gabriel", "rt": 3587, "blocknum": 4, "qtype": "probability", "response": 0.77, "trialnum": 33, "gender": "male", "qnum": 4}, {"story": "beach", "time": 464365, "name": "Gabriel", "rt": 3587, "blocknum": 4, "qtype": "ungrammatical", "response": false, "trialnum": 33, "gender": "male", "qnum": 4}, {"story": "beach", "time": 467041, "name": "Caleb", "rt": 2673, "blocknum": 4, "qtype": "probability", "response": 0.76, "trialnum": 34, "gender": "male", "qnum": 5}, {"story": "beach", "time": 467041, "name": "Caleb", "rt": 2673, "blocknum": 4, "qtype": "ungrammatical", "response": false, "trialnum": 34, "gender": "male", "qnum": 5}, {"story": "insomnia", "time": 473637, "name": "Kim", "rt": 6593, "blocknum": 5, "qtype": "probability", "response": 0.66, "trialnum": 36, "gender": "female", "qnum": 0}, {"story": "insomnia", "time": 473637, "name": "Kim", "rt": 6593, "blocknum": 5, "qtype": "ungrammatical", "trialnum": 36, "gender": "female", "qnum": 0}, {"story": "insomnia", "time": 498439, "name": "David", "rt": 24801, "blocknum": 5, "qtype": "explanation", "response": "he was focused on a game (which he was worried about)", "trialnum": 37, "gender": "male", "qnum": 1}, {"story": "insomnia", "time": 502373, "name": "David", "rt": 3932, "blocknum": 5, "qtype": "probability", "response": 0.27, "trialnum": 38, "gender": "male", "qnum": 2}, {"story": "insomnia", "time": 502373, "name": "David", "rt": 3932, "blocknum": 5, "qtype": "ungrammatical", "trialnum": 38, "gender": "male", "qnum": 2}, {"story": "insomnia", "time": 508955, "name": "Alexander", "rt": 6579, "blocknum": 5, "qtype": "probability", "response": 0.59, "trialnum": 39, "gender": "male", "qnum": 3}, {"story": "insomnia", "time": 508955, "name": "Alexander", "rt": 6579, "blocknum": 5, "qtype": "ungrammatical", "response": false, "trialnum": 39, "gender": "male", "qnum": 3}, {"story": "insomnia", "time": 515708, "name": "Ian", "rt": 6750, "blocknum": 5, "qtype": "probability", "response": 0.5, "trialnum": 40, "gender": "male", "qnum": 4}, {"story": "insomnia", "time": 515708, "name": "Ian", "rt": 6750, "blocknum": 5, "qtype": "ungrammatical", "response": false, "trialnum": 40, "gender": "male", "qnum": 4}, {"story": "insomnia", "time": 519224, "name": "Jeremy", "rt": 3514, "blocknum": 5, "qtype": "probability", "response": 0.32, "trialnum": 41, "gender": "male", "qnum": 5}, {"story": "insomnia", "time": 519224, "name": "Jeremy", "rt": 3514, "blocknum": 5, "qtype": "ungrammatical", "response": false, "trialnum": 41, "gender": "male", "qnum": 5}, {"story": "coffee", "time": 523400, "name": "Shannon", "rt": 4173, "blocknum": 6, "qtype": "probability", "response": 0.63, "trialnum": 43, "gender": "female", "qnum": 0}, {"story": "coffee", "time": 523400, "name": "Shannon", "rt": 4173, "blocknum": 6, "qtype": "ungrammatical", "trialnum": 43, "gender": "female", "qnum": 0}, {"story": "coffee", "time": 532255, "name": "Jeff", "rt": 8853, "blocknum": 6, "qtype": "explanation", "response": "the coffee was decaf", "trialnum": 44, "gender": "male", "qnum": 1}, {"story": "coffee", "time": 535431, "name": "Jeff", "rt": 3173, "blocknum": 6, "qtype": "probability", "response": 0.39, "trialnum": 45, "gender": "male", "qnum": 2}, {"story": "coffee", "time": 535431, "name": "Jeff", "rt": 3173, "blocknum": 6, "qtype": "ungrammatical", "trialnum": 45, "gender": "male", "qnum": 2}, {"story": "coffee", "time": 540807, "name": "Madison", "rt": 5373, "blocknum": 6, "qtype": "probability", "response": 0.49, "trialnum": 46, "gender": "female", "qnum": 3}, {"story": "coffee", "time": 540807, "name": "Madison", "rt": 5373, "blocknum": 6, "qtype": "ungrammatical", "response": false, "trialnum": 46, "gender": "female", "qnum": 3}, {"story": "coffee", "time": 546982, "name": "Trevor", "rt": 6172, "blocknum": 6, "qtype": "probability", "response": 0.63, "trialnum": 47, "gender": "male", "qnum": 4}, {"story": "coffee", "time": 546982, "name": "Trevor", "rt": 6172, "blocknum": 6, "qtype": "ungrammatical", "response": true, "trialnum": 47, "gender": "male", "qnum": 4}, {"story": "coffee", "time": 550818, "name": "Timothy", "rt": 3834, "blocknum": 6, "qtype": "probability", "response": 0.38, "trialnum": 48, "gender": "male", "qnum": 5}, {"story": "coffee", "time": 550818, "name": "Timothy", "rt": 3834, "blocknum": 6, "qtype": "ungrammatical", "response": false, "trialnum": 48, "gender": "male", "qnum": 5}, {"story": "fitness", "time": 554491, "name": "Thomas", "rt": 3668, "blocknum": 7, "qtype": "probability", "response": 0.81, "trialnum": 50, "gender": "male", "qnum": 0}, {"story": "fitness", "time": 554491, "name": "Thomas", "rt": 3668, "blocknum": 7, "qtype": "ungrammatical", "trialnum": 50, "gender": "male", "qnum": 0}, {"story": "fitness", "time": 604468, "name": "Michelle", "rt": 49975, "blocknum": 7, "qtype": "explanation", "response": "she only jogged for five minutes at a time", "trialnum": 51, "gender": "female", "qnum": 1}, {"story": "fitness", "time": 612943, "name": "Michelle", "rt": 8472, "blocknum": 7, "qtype": "probability", "response": 0.45, "trialnum": 52, "gender": "female", "qnum": 2}, {"story": "fitness", "time": 612943, "name": "Michelle", "rt": 8472, "blocknum": 7, "qtype": "ungrammatical", "trialnum": 52, "gender": "female", "qnum": 2}, {"story": "fitness", "time": 618366, "name": "Stephanie", "rt": 5420, "blocknum": 7, "qtype": "probability", "response": 0.78, "trialnum": 53, "gender": "female", "qnum": 3}, {"story": "fitness", "time": 618366, "name": "Stephanie", "rt": 5420, "blocknum": 7, "qtype": "ungrammatical", "response": false, "trialnum": 53, "gender": "female", "qnum": 3}, {"story": "fitness", "time": 623477, "name": "Nathan", "rt": 5109, "blocknum": 7, "qtype": "probability", "response": 0.84, "trialnum": 54, "gender": "male", "qnum": 4}, {"story": "fitness", "time": 623477, "name": "Nathan", "rt": 5109, "blocknum": 7, "qtype": "ungrammatical", "response": false, "trialnum": 54, "gender": "male", "qnum": 4}, {"story": "fitness", "time": 626677, "name": "Dustin", "rt": 3198, "blocknum": 7, "qtype": "probability", "response": 0.45, "trialnum": 55, "gender": "male", "qnum": 5}, {"story": "fitness", "time": 626677, "name": "Dustin", "rt": 3198, "blocknum": 7, "qtype": "ungrammatical", "response": false, "trialnum": 55, "gender": "male", "qnum": 5}, {"story": "reading", "time": 642642, "name": "Anthony", "rt": 15961, "blocknum": 8, "qtype": "probability", "response": 0.63, "trialnum": 57, "gender": "male", "qnum": 0}, {"story": "reading", "time": 642642, "name": "Anthony", "rt": 15961, "blocknum": 8, "qtype": "ungrammatical", "trialnum": 57, "gender": "male", "qnum": 0}, {"story": "reading", "time": 651128, "name": "Allison", "rt": 8484, "blocknum": 8, "qtype": "explanation", "response": "she read a very simple book", "trialnum": 58, "gender": "female", "qnum": 1}, {"story": "reading", "time": 654989, "name": "Allison", "rt": 3858, "blocknum": 8, "qtype": "probability", "response": 0.44, "trialnum": 59, "gender": "female", "qnum": 2}, {"story": "reading", "time": 654989, "name": "Allison", "rt": 3858, "blocknum": 8, "qtype": "ungrammatical", "trialnum": 59, "gender": "female", "qnum": 2}, {"story": "reading", "time": 668547, "name": "Amanda", "rt": 13555, "blocknum": 8, "qtype": "probability", "response": 0.61, "trialnum": 60, "gender": "female", "qnum": 3}, {"story": "reading", "time": 668547, "name": "Amanda", "rt": 13555, "blocknum": 8, "qtype": "ungrammatical", "response": false, "trialnum": 60, "gender": "female", "qnum": 3}, {"story": "reading", "time": 675691, "name": "Ryan", "rt": 7138, "blocknum": 8, "qtype": "probability", "response": 0.78, "trialnum": 61, "gender": "male", "qnum": 4}, {"story": "reading", "time": 675691, "name": "Ryan", "rt": 7138, "blocknum": 8, "qtype": "ungrammatical", "response": false, "trialnum": 61, "gender": "male", "qnum": 4}, {"story": "reading", "time": 678654, "name": "Zach", "rt": 2960, "blocknum": 8, "qtype": "probability", "response": 0.5, "trialnum": 62, "gender": "male", "qnum": 5}, {"story": "reading", "time": 678654, "name": "Zach", "rt": 2960, "blocknum": 8, "qtype": "ungrammatical", "response": false, "trialnum": 62, "gender": "male", "qnum": 5}], "events": [{"type": "position", "time": 93, "x": null, "y": 0.33}, {"type": "position", "time": 414, "x": null, "y": 0.33166666666666667}, {"type": "position", "time": 449, "x": null, "y": 0.335}, {"type": "position", "time": 504, "x": null, "y": 0.335}, {"type": "position", "time": 544, "x": null, "y": 0.335}, {"type": "position", "time": 593, "x": null, "y": 0.335}, {"type": "position", "time": 643, "x": null, "y": 0.335}, {"type": "position", "time": 696, "x": null, "y": 0.335}, {"type": "position", "time": 743, "x": null, "y": 0.335}, {"type": "position", "time": 808, "x": null, "y": 0.335}, {"type": "position", "time": 844, "x": null, "y": 0.33666666666666667}, {"type": "position", "time": 893, "x": null, "y": 0.36}, {"type": "position", "time": 943, "x": null, "y": 0.42833333333333334}, {"type": "position", "time": 993, "x": null, "y": 0.4533333333333333}, {"type": "position", "time": 1043, "x": null, "y": 0.45666666666666667}, {"type": "position", "time": 1093, "x": null, "y": 0.46}, {"type": "position", "time": 1143, "x": null, "y": 0.46}, {"type": "position", "time": 1195, "x": null, "y": 0.475}, {"type": "position", "time": 1241, "x": null, "y": 0.4816666666666667}, {"type": "position", "time": 1288, "x": null, "y": 0.4866666666666667}, {"type": "position", "time": 1335, "x": null, "y": 0.48833333333333334}, {"type": "position", "time": 2369, "x": null, "y": 0.48833333333333334}, {"type": "position", "time": 3369, "x": null, "y": 0.48833333333333334}, {"type": "position", "time": 4374, "x": null, "y": 0.48833333333333334}, {"type": "position", "time": 5373, "x": null, "y": 0.48833333333333334}, {"type": "position", "time": 6366, "x": null, "y": 0.48833333333333334}, {"type": "position", "time": 7373, "x": null, "y": 0.48833333333333334}, {"type": "position", "time": 8363, "x": null, "y": 0.48833333333333334}, {"type": "position", "time": 9371, "x": null, "y": 0.48833333333333334}, {"type": "position", "time": 10360, "x": null, "y": 0.48833333333333334}, {"type": "position", "time": 11369, "x": null, "y": 0.48833333333333334}, {"type": "position", "time": 12365, "x": null, "y": 0.48833333333333334}, {"type": "position", "time": 13361, "x": null, "y": 0.48833333333333334}, {"type": "position", "time": 14366, "x": null, "y": 0.48833333333333334}, {"type": "position", "time": 15373, "x": null, "y": 0.48833333333333334}, {"type": "position", "time": 16369, "x": null, "y": 0.48833333333333334}, {"type": "position", "time": 17363, "x": null, "y": 0.48833333333333334}, {"type": "position", "time": 18363, "x": null, "y": 0.48833333333333334}, {"type": "position", "time": 19374, "x": null, "y": 0.48833333333333334}, {"type": "position", "time": 20361, "x": null, "y": 0.48833333333333334}, {"type": "position", "time": 20742, "x": null, "y": 0.48833333333333334}, {"type": "position", "time": 20743, "x": null, "y": 0.48833333333333334}, {"type": "position", "time": 20793, "x": null, "y": 0.48833333333333334}, {"type": "position", "time": 20844, "x": null, "y": 0.48833333333333334}, {"type": "position", "time": 20895, "x": null, "y": 0.48833333333333334}, {"type": "position", "time": 20943, "x": null, "y": 0.48833333333333334}, {"type": "position", "time": 20993, "x": null, "y": 0.48833333333333334}, {"type": "position", "time": 21046, "x": null, "y": 0.48833333333333334}, {"type": "position", "time": 21093, "x": null, "y": 0.48833333333333334}, {"type": "position", "time": 21144, "x": null, "y": 0.48833333333333334}, {"type": "position", "time": 21360, "x": null, "y": 0.48833333333333334}, {"type": "position", "time": 22360, "x": null, "y": 0.48833333333333334}, {"type": "position", "time": 23361, "x": null, "y": 0.48833333333333334}, {"type": "position", "time": 23430, "x": null, "y": 0.48833333333333334}, {"type": "position", "time": 23443, "x": null, "y": 0.48833333333333334}, {"type": "position", "time": 23493, "x": null, "y": 0.48833333333333334}, {"type": "position", "time": 23539, "x": null, "y": 0.48833333333333334}, {"type": "position", "time": 23602, "x": null, "y": 0.48833333333333334}, {"type": "position", "time": 23649, "x": null, "y": 0.48833333333333334}, {"type": "position", "time": 23693, "x": null, "y": 0.48833333333333334}, {"type": "position", "time": 23751, "x": null, "y": 0.48833333333333334}, {"type": "position", "time": 23793, "x": null, "y": 0.48833333333333334}, {"type": "position", "time": 23843, "x": null, "y": 0.48833333333333334}, {"type": "position", "time": 23893, "x": null, "y": 0.48833333333333334}, {"type": "position", "time": 23936, "x": null, "y": 0.48833333333333334}, {"type": "position", "time": 23999, "x": null, "y": 0.48833333333333334}, {"type": "position", "time": 24046, "x": null, "y": 0.48833333333333334}, {"type": "position", "time": 24108, "x": null, "y": 0.48833333333333334}, {"type": "position", "time": 24156, "x": null, "y": 0.48833333333333334}, {"type": "position", "time": 24203, "x": null, "y": 0.48833333333333334}, {"type": "position", "time": 24250, "x": null, "y": 0.48833333333333334}, {"type": "position", "time": 24297, "x": null, "y": 0.48833333333333334}, {"type": "position", "time": 24347, "x": null, "y": 0.48833333333333334}, {"type": "position", "time": 24401, "x": null, "y": 0.48833333333333334}, {"type": "position", "time": 24443, "x": null, "y": 0.48833333333333334}, {"type": "position", "time": 24507, "x": null, "y": 0.48833333333333334}, {"type": "position", "time": 24554, "x": null, "y": 0.48833333333333334}, {"type": "position", "time": 24600, "x": null, "y": 0.48833333333333334}, {"type": "position", "time": 24647, "x": null, "y": 0.48833333333333334}, {"type": "position", "time": 24694, "x": null, "y": 0.48833333333333334}, {"type": "position", "time": 24757, "x": null, "y": 0.48833333333333334}, {"type": "position", "time": 24804, "x": null, "y": 0.48833333333333334}, {"type": "position", "time": 24850, "x": null, "y": 0.48833333333333334}, {"type": "position", "time": 24897, "x": null, "y": 0.48833333333333334}, {"type": "position", "time": 24944, "x": null, "y": 0.48833333333333334}, {"type": "position", "time": 25007, "x": null, "y": 0.48833333333333334}, {"type": "position", "time": 25054, "x": null, "y": 0.48833333333333334}, {"type": "position", "time": 25100, "x": null, "y": 0.48833333333333334}, {"type": "position", "time": 25147, "x": null, "y": 0.48833333333333334}, {"type": "position", "time": 25194, "x": null, "y": 0.48833333333333334}, {"type": "position", "time": 25257, "x": null, "y": 0.48833333333333334}, {"type": "position", "time": 25304, "x": null, "y": 0.48833333333333334}, {"type": "position", "time": 25350, "x": null, "y": 0.48833333333333334}, {"type": "position", "time": 25393, "x": null, "y": 0.48833333333333334}, {"type": "position", "time": 25447, "x": null, "y": 0.48833333333333334}, {"type": "position", "time": 25494, "x": null, "y": 0.48833333333333334}, {"type": "position", "time": 25556, "x": null, "y": 0.48833333333333334}, {"type": "position", "time": 25603, "x": null, "y": 0.48833333333333334}, {"type": "position", "time": 25650, "x": null, "y": 0.48833333333333334}, {"type": "position", "time": 25694, "x": null, "y": 0.48833333333333334}, {"type": "position", "time": 25745, "x": null, "y": 0.48833333333333334}, {"type": "position", "time": 25807, "x": null, "y": 0.48833333333333334}, {"type": "position", "time": 25854, "x": null, "y": 0.48833333333333334}, {"type": "position", "time": 25901, "x": null, "y": 0.48833333333333334}, {"type": "position", "time": 25948, "x": null, "y": 0.48833333333333334}, {"type": "position", "time": 25995, "x": null, "y": 0.48833333333333334}, {"type": "position", "time": 26057, "x": null, "y": 0.48833333333333334}, {"type": "position", "time": 26093, "x": null, "y": 0.48833333333333334}, {"type": "position", "time": 26142, "x": null, "y": 0.48833333333333334}, {"type": "position", "time": 26193, "x": null, "y": 0.48833333333333334}, {"type": "position", "time": 26243, "x": null, "y": 0.48833333333333334}, {"type": "position", "time": 26293, "x": null, "y": 0.48833333333333334}, {"type": "position", "time": 26343, "x": null, "y": 0.48833333333333334}, {"type": "position", "time": 26393, "x": null, "y": 0.48833333333333334}, {"type": "position", "time": 26452, "x": null, "y": 0.48833333333333334}, {"type": "position", "time": 26493, "x": null, "y": 0.48833333333333334}, {"type": "position", "time": 26543, "x": null, "y": 0.48833333333333334}, {"type": "position", "time": 26593, "x": null, "y": 0.48833333333333334}, {"type": "position", "time": 26644, "x": null, "y": 0.48833333333333334}, {"type": "position", "time": 26693, "x": null, "y": 0.48833333333333334}, {"type": "position", "time": 26744, "x": null, "y": 0.48833333333333334}, {"type": "position", "time": 26794, "x": null, "y": 0.48833333333333334}, {"type": "position", "time": 26843, "x": null, "y": 0.48833333333333334}, {"type": "position", "time": 26893, "x": null, "y": 0.48833333333333334}, {"type": "position", "time": 26943, "x": null, "y": 0.48833333333333334}, {"type": "position", "time": 26993, "x": null, "y": 0.48833333333333334}, {"type": "position", "time": 27044, "x": null, "y": 0.48833333333333334}, {"type": "position", "time": 27094, "x": null, "y": 0.48833333333333334}, {"type": "position", "time": 27143, "x": null, "y": 0.48833333333333334}, {"type": "position", "time": 27193, "x": null, "y": 0.48833333333333334}, {"type": "position", "time": 27243, "x": null, "y": 0.48833333333333334}, {"type": "position", "time": 27294, "x": null, "y": 0.48833333333333334}, {"type": "position", "time": 27344, "x": null, "y": 0.48833333333333334}, {"type": "position", "time": 27393, "x": null, "y": 0.48833333333333334}, {"type": "position", "time": 27444, "x": null, "y": 0.48833333333333334}, {"type": "position", "time": 27493, "x": null, "y": 0.48833333333333334}, {"type": "position", "time": 27543, "x": null, "y": 0.48833333333333334}, {"type": "position", "time": 27593, "x": null, "y": 0.48833333333333334}, {"type": "position", "time": 27642, "x": null, "y": 0.48833333333333334}, {"type": "position", "time": 27693, "x": null, "y": 0.48833333333333334}, {"type": "position", "time": 27743, "x": null, "y": 0.48833333333333334}, {"type": "position", "time": 27793, "x": null, "y": 0.48833333333333334}, {"type": "position", "time": 27843, "x": null, "y": 0.48833333333333334}, {"type": "position", "time": 27893, "x": null, "y": 0.48833333333333334}, {"type": "position", "time": 27943, "x": null, "y": 0.48833333333333334}, {"type": "position", "time": 27993, "x": null, "y": 0.48833333333333334}, {"type": "position", "time": 28043, "x": null, "y": 0.48833333333333334}, {"type": "position", "time": 28093, "x": null, "y": 0.48833333333333334}, {"type": "position", "time": 28143, "x": null, "y": 0.48833333333333334}, {"type": "position", "time": 28193, "x": null, "y": 0.48833333333333334}, {"type": "position", "time": 28243, "x": null, "y": 0.48833333333333334}, {"type": "position", "time": 28293, "x": null, "y": 0.48833333333333334}, {"type": "position", "time": 28343, "x": null, "y": 0.48833333333333334}, {"type": "position", "time": 28393, "x": null, "y": 0.48833333333333334}, {"type": "position", "time": 28444, "x": null, "y": 0.48833333333333334}, {"type": "position", "time": 28494, "x": null, "y": 0.48833333333333334}, {"type": "position", "time": 28544, "x": null, "y": 0.48833333333333334}, {"type": "position", "time": 28593, "x": null, "y": 0.48833333333333334}, {"type": "position", "time": 28644, "x": null, "y": 0.48833333333333334}, {"type": "position", "time": 28694, "x": null, "y": 0.48833333333333334}, {"type": "position", "time": 28743, "x": null, "y": 0.48833333333333334}, {"type": "position", "time": 28793, "x": null, "y": 0.48833333333333334}, {"type": "position", "time": 28842, "x": null, "y": 0.48833333333333334}, {"type": "position", "time": 28893, "x": null, "y": 0.48833333333333334}, {"type": "position", "time": 28943, "x": null, "y": 0.48833333333333334}, {"type": "position", "time": 28993, "x": null, "y": 0.48833333333333334}, {"type": "position", "time": 29043, "x": null, "y": 0.48833333333333334}, {"type": "position", "time": 29093, "x": null, "y": 0.48833333333333334}, {"type": "position", "time": 29143, "x": null, "y": 0.48833333333333334}, {"type": "position", "time": 29193, "x": null, "y": 0.48833333333333334}, {"type": "position", "time": 29243, "x": null, "y": 0.48833333333333334}, {"type": "position", "time": 29294, "x": null, "y": 0.48833333333333334}, {"type": "position", "time": 29344, "x": null, "y": 0.48833333333333334}, {"type": "position", "time": 29393, "x": null, "y": 0.48833333333333334}, {"type": "position", "time": 29443, "x": null, "y": 0.48833333333333334}, {"type": "position", "time": 29493, "x": null, "y": 0.48833333333333334}, {"type": "position", "time": 29543, "x": null, "y": 0.48833333333333334}, {"type": "position", "time": 29594, "x": null, "y": 0.48833333333333334}, {"type": "position", "time": 29643, "x": null, "y": 0.48833333333333334}, {"type": "position", "time": 29693, "x": null, "y": 0.48833333333333334}, {"type": "position", "time": 29743, "x": null, "y": 0.48833333333333334}, {"type": "position", "time": 29793, "x": null, "y": 0.48833333333333334}, {"type": "position", "time": 29844, "x": null, "y": 0.48833333333333334}, {"type": "position", "time": 29893, "x": null, "y": 0.48833333333333334}, {"type": "position", "time": 29943, "x": null, "y": 0.48833333333333334}, {"type": "position", "time": 29993, "x": null, "y": 0.48833333333333334}, {"type": "position", "time": 30043, "x": null, "y": 0.48833333333333334}, {"type": "position", "time": 30094, "x": null, "y": 0.48833333333333334}, {"type": "position", "time": 30143, "x": null, "y": 0.48833333333333334}, {"type": "position", "time": 30193, "x": null, "y": 0.48833333333333334}, {"type": "position", "time": 30243, "x": null, "y": 0.48833333333333334}, {"type": "position", "time": 30293, "x": null, "y": 0.48833333333333334}, {"type": "position", "time": 30343, "x": null, "y": 0.48833333333333334}, {"type": "position", "time": 30393, "x": null, "y": 0.48833333333333334}, {"type": "position", "time": 30443, "x": null, "y": 0.48833333333333334}, {"type": "position", "time": 30493, "x": null, "y": 0.48833333333333334}, {"type": "position", "time": 30543, "x": null, "y": 0.48833333333333334}, {"type": "position", "time": 30593, "x": null, "y": 0.48833333333333334}, {"type": "position", "time": 30644, "x": null, "y": 0.48833333333333334}, {"type": "position", "time": 30694, "x": null, "y": 0.48833333333333334}, {"type": "position", "time": 30743, "x": null, "y": 0.48833333333333334}, {"type": "position", "time": 30793, "x": null, "y": 0.48833333333333334}, {"type": "position", "time": 30843, "x": null, "y": 0.48833333333333334}, {"type": "position", "time": 30893, "x": null, "y": 0.48833333333333334}, {"type": "position", "time": 30943, "x": null, "y": 0.48833333333333334}, {"type": "position", "time": 30993, "x": null, "y": 0.48833333333333334}, {"type": "position", "time": 31043, "x": null, "y": 0.48833333333333334}, {"type": "position", "time": 31093, "x": null, "y": 0.48833333333333334}, {"type": "position", "time": 31143, "x": null, "y": 0.48833333333333334}, {"type": "position", "time": 31193, "x": null, "y": 0.48833333333333334}, {"type": "position", "time": 31243, "x": null, "y": 0.48833333333333334}, {"type": "position", "time": 31293, "x": null, "y": 0.48833333333333334}, {"type": "position", "time": 31343, "x": null, "y": 0.48833333333333334}, {"type": "position", "time": 31393, "x": null, "y": 0.48833333333333334}, {"type": "position", "time": 31444, "x": null, "y": 0.48833333333333334}, {"type": "position", "time": 31493, "x": null, "y": 0.48833333333333334}, {"type": "position", "time": 31549, "x": null, "y": 0.48833333333333334}, {"type": "position", "time": 31596, "x": null, "y": 0.48833333333333334}, {"type": "position", "time": 31646, "x": null, "y": 0.48833333333333334}, {"type": "position", "time": 31694, "x": null, "y": 0.48833333333333334}, {"type": "position", "time": 31756, "x": null, "y": 0.48833333333333334}, {"type": "position", "time": 31803, "x": null, "y": 0.48833333333333334}, {"type": "position", "time": 31850, "x": null, "y": 0.48833333333333334}, {"type": "position", "time": 31897, "x": null, "y": 0.48833333333333334}, {"type": "position", "time": 31943, "x": null, "y": 0.48833333333333334}, {"type": "position", "time": 31994, "x": null, "y": 0.48833333333333334}, {"type": "position", "time": 32057, "x": null, "y": 0.48833333333333334}, {"type": "position", "time": 32104, "x": null, "y": 0.48833333333333334}, {"type": "position", "time": 32151, "x": null, "y": 0.48833333333333334}, {"type": "position", "time": 32197, "x": null, "y": 0.48833333333333334}, {"type": "position", "time": 32244, "x": null, "y": 0.48833333333333334}, {"type": "position", "time": 32307, "x": null, "y": 0.48833333333333334}, {"type": "position", "time": 32354, "x": null, "y": 0.48833333333333334}, {"type": "position", "time": 32394, "x": null, "y": 0.48833333333333334}, {"type": "position", "time": 32456, "x": null, "y": 0.48833333333333334}, {"type": "position", "time": 32503, "x": null, "y": 0.48833333333333334}, {"type": "position", "time": 32550, "x": null, "y": 0.48833333333333334}, {"type": "position", "time": 32597, "x": null, "y": 0.48833333333333334}, {"type": "position", "time": 32644, "x": null, "y": 0.48833333333333334}, {"type": "position", "time": 32706, "x": null, "y": 0.48833333333333334}, {"type": "position", "time": 32753, "x": null, "y": 0.48833333333333334}, {"type": "position", "time": 32800, "x": null, "y": 0.48833333333333334}, {"type": "position", "time": 32847, "x": null, "y": 0.48833333333333334}, {"type": "position", "time": 32894, "x": null, "y": 0.48833333333333334}, {"type": "position", "time": 32956, "x": null, "y": 0.48833333333333334}, {"type": "position", "time": 33003, "x": null, "y": 0.48833333333333334}, {"type": "position", "time": 33050, "x": null, "y": 0.48833333333333334}, {"type": "position", "time": 33097, "x": null, "y": 0.48833333333333334}, {"type": "position", "time": 33144, "x": null, "y": 0.48833333333333334}, {"type": "position", "time": 33206, "x": null, "y": 0.48833333333333334}, {"type": "position", "time": 33253, "x": null, "y": 0.48833333333333334}, {"type": "position", "time": 33300, "x": null, "y": 0.48833333333333334}, {"type": "position", "time": 33347, "x": null, "y": 0.48833333333333334}, {"type": "position", "time": 33395, "x": null, "y": 0.48833333333333334}, {"type": "position", "time": 33455, "x": null, "y": 0.48833333333333334}, {"type": "position", "time": 33502, "x": null, "y": 0.48833333333333334}, {"type": "position", "time": 33548, "x": null, "y": 0.48833333333333334}, {"type": "position", "time": 33595, "x": null, "y": 0.48833333333333334}, {"type": "position", "time": 33645, "x": null, "y": 0.48833333333333334}, {"type": "position", "time": 33703, "x": null, "y": 0.48833333333333334}, {"type": "position", "time": 33750, "x": null, "y": 0.48833333333333334}, {"type": "position", "time": 33797, "x": null, "y": 0.48833333333333334}, {"type": "position", "time": 33844, "x": null, "y": 0.48833333333333334}, {"type": "position", "time": 33906, "x": null, "y": 0.48833333333333334}, {"type": "position", "time": 33953, "x": null, "y": 0.48833333333333334}, {"type": "position", "time": 34000, "x": null, "y": 0.48833333333333334}, {"type": "position", "time": 34047, "x": null, "y": 0.48833333333333334}, {"type": "position", "time": 34094, "x": null, "y": 0.48833333333333334}, {"type": "position", "time": 34156, "x": null, "y": 0.48833333333333334}, {"type": "position", "time": 34203, "x": null, "y": 0.48833333333333334}, {"type": "position", "time": 34250, "x": null, "y": 0.48833333333333334}, {"type": "position", "time": 34297, "x": null, "y": 0.48833333333333334}, {"type": "position", "time": 34344, "x": null, "y": 0.48833333333333334}, {"type": "position", "time": 34406, "x": null, "y": 0.48833333333333334}, {"type": "position", "time": 34452, "x": null, "y": 0.48833333333333334}, {"type": "position", "time": 34498, "x": null, "y": 0.48833333333333334}, {"type": "position", "time": 34545, "x": null, "y": 0.48833333333333334}, {"type": "position", "time": 34608, "x": null, "y": 0.48833333333333334}, {"type": "position", "time": 34655, "x": null, "y": 0.48833333333333334}, {"type": "position", "time": 34693, "x": null, "y": 0.48833333333333334}, {"type": "position", "time": 34748, "x": null, "y": 0.48833333333333334}, {"type": "position", "time": 34795, "x": null, "y": 0.48833333333333334}, {"type": "position", "time": 34858, "x": null, "y": 0.48833333333333334}, {"type": "position", "time": 34902, "x": null, "y": 0.48833333333333334}, {"type": "position", "time": 34944, "x": null, "y": 0.48833333333333334}, {"type": "position", "time": 34993, "x": null, "y": 0.48833333333333334}, {"type": "position", "time": 35043, "x": null, "y": 0.48833333333333334}, {"type": "position", "time": 35093, "x": null, "y": 0.48833333333333334}, {"type": "position", "time": 35144, "x": null, "y": 0.48833333333333334}, {"type": "position", "time": 35193, "x": null, "y": 0.48833333333333334}, {"type": "position", "time": 35243, "x": null, "y": 0.48833333333333334}, {"type": "position", "time": 35293, "x": null, "y": 0.48833333333333334}, {"type": "position", "time": 35343, "x": null, "y": 0.48833333333333334}, {"type": "position", "time": 35393, "x": null, "y": 0.48833333333333334}, {"type": "position", "time": 35443, "x": null, "y": 0.48833333333333334}, {"type": "position", "time": 35493, "x": null, "y": 0.48833333333333334}, {"type": "position", "time": 35543, "x": null, "y": 0.48833333333333334}, {"type": "position", "time": 35593, "x": null, "y": 0.48833333333333334}, {"type": "position", "time": 35643, "x": null, "y": 0.48833333333333334}, {"type": "position", "time": 35693, "x": null, "y": 0.48833333333333334}, {"type": "position", "time": 35743, "x": null, "y": 0.48833333333333334}, {"type": "position", "time": 35793, "x": null, "y": 0.48833333333333334}, {"type": "position", "time": 35843, "x": null, "y": 0.48833333333333334}, {"type": "position", "time": 35893, "x": null, "y": 0.48833333333333334}, {"type": "position", "time": 35944, "x": null, "y": 0.48833333333333334}, {"type": "position", "time": 35994, "x": null, "y": 0.48833333333333334}, {"type": "position", "time": 36043, "x": null, "y": 0.48833333333333334}, {"type": "position", "time": 36094, "x": null, "y": 0.48833333333333334}, {"type": "position", "time": 36143, "x": null, "y": 0.48833333333333334}, {"type": "position", "time": 36193, "x": null, "y": 0.48833333333333334}, {"type": "position", "time": 36243, "x": null, "y": 0.48833333333333334}, {"type": "position", "time": 36293, "x": null, "y": 0.48833333333333334}, {"type": "position", "time": 36343, "x": null, "y": 0.48833333333333334}, {"type": "position", "time": 36393, "x": null, "y": 0.48833333333333334}, {"type": "position", "time": 36443, "x": null, "y": 0.48833333333333334}, {"type": "position", "time": 36494, "x": null, "y": 0.48833333333333334}, {"type": "position", "time": 36543, "x": null, "y": 0.48833333333333334}, {"type": "position", "time": 36594, "x": null, "y": 0.48833333333333334}, {"type": "position", "time": 36643, "x": null, "y": 0.48833333333333334}, {"type": "position", "time": 36693, "x": null, "y": 0.48833333333333334}, {"type": "position", "time": 36743, "x": null, "y": 0.48833333333333334}, {"type": "position", "time": 36793, "x": null, "y": 0.48833333333333334}, {"type": "position", "time": 36843, "x": null, "y": 0.48833333333333334}, {"type": "position", "time": 36894, "x": null, "y": 0.48833333333333334}, {"type": "position", "time": 36944, "x": null, "y": 0.48833333333333334}, {"type": "position", "time": 36993, "x": null, "y": 0.48833333333333334}, {"type": "position", "time": 37043, "x": null, "y": 0.48833333333333334}, {"type": "position", "time": 37093, "x": null, "y": 0.48833333333333334}, {"type": "position", "time": 37144, "x": null, "y": 0.48833333333333334}, {"type": "position", "time": 37194, "x": null, "y": 0.48833333333333334}, {"type": "position", "time": 37243, "x": null, "y": 0.48833333333333334}, {"type": "position", "time": 37293, "x": null, "y": 0.48833333333333334}, {"type": "position", "time": 37343, "x": null, "y": 0.48833333333333334}, {"type": "position", "time": 37394, "x": null, "y": 0.48833333333333334}, {"type": "position", "time": 37444, "x": null, "y": 0.48833333333333334}, {"type": "position", "time": 37494, "x": null, "y": 0.48833333333333334}, {"type": "position", "time": 37543, "x": null, "y": 0.48833333333333334}, {"type": "position", "time": 37593, "x": null, "y": 0.48833333333333334}, {"type": "position", "time": 37643, "x": null, "y": 0.48833333333333334}, {"type": "position", "time": 37693, "x": null, "y": 0.48833333333333334}, {"type": "position", "time": 37743, "x": null, "y": 0.48833333333333334}, {"type": "position", "time": 37794, "x": null, "y": 0.48833333333333334}, {"type": "position", "time": 37844, "x": null, "y": 0.48833333333333334}, {"type": "position", "time": 37899, "x": null, "y": 0.48833333333333334}, {"type": "position", "time": 37944, "x": null, "y": 0.48833333333333334}, {"type": "position", "time": 37993, "x": null, "y": 0.48833333333333334}, {"type": "position", "time": 38043, "x": null, "y": 0.48833333333333334}, {"type": "position", "time": 38093, "x": null, "y": 0.48833333333333334}, {"type": "position", "time": 38144, "x": null, "y": 0.48833333333333334}, {"type": "position", "time": 38193, "x": null, "y": 0.48833333333333334}, {"type": "position", "time": 38243, "x": null, "y": 0.6066666666666667}, {"type": "position", "time": 38293, "x": null, "y": 0.6066666666666667}, {"type": "position", "time": 38343, "x": null, "y": 0.6066666666666667}, {"type": "position", "time": 38393, "x": null, "y": 0.6066666666666667}, {"type": "position", "time": 38443, "x": null, "y": 0.6066666666666667}, {"type": "position", "time": 38493, "x": null, "y": 0.6066666666666667}, {"type": "position", "time": 38543, "x": null, "y": 0.6066666666666667}, {"type": "position", "time": 38595, "x": null, "y": 0.6066666666666667}, {"type": "position", "time": 38643, "x": null, "y": 0.6066666666666667}, {"type": "position", "time": 38693, "x": null, "y": 0.6016666666666667}, {"type": "position", "time": 38743, "x": null, "y": 0.5816666666666667}, {"type": "position", "time": 38793, "x": null, "y": 0.5566666666666666}, {"type": "position", "time": 38843, "x": null, "y": 0.525}, {"type": "position", "time": 38893, "x": null, "y": 0.525}, {"type": "position", "time": 38943, "x": null, "y": 0.5183333333333333}, {"type": "position", "time": 38993, "x": null, "y": 0.515}, {"type": "position", "time": 39043, "x": null, "y": 0.515}, {"type": "position", "time": 39093, "x": null, "y": 0.51}, {"type": "position", "time": 39144, "x": null, "y": 0.48333333333333334}, {"type": "position", "time": 39193, "x": null, "y": 0.43166666666666664}, {"type": "position", "time": 39243, "x": null, "y": 0.36333333333333334}, {"type": "position", "time": 39293, "x": null, "y": 0.32666666666666666}, {"type": "position", "time": 39343, "x": null, "y": 0.31166666666666665}, {"type": "position", "time": 39393, "x": null, "y": 0.31166666666666665}, {"type": "position", "time": 39444, "x": null, "y": 0.33666666666666667}, {"type": "position", "time": 39493, "x": null, "y": 0.33}, {"type": "position", "time": 39544, "x": null, "y": 0.33}, {"type": "position", "time": 39593, "x": null, "y": 0.3416666666666667}, {"type": "position", "time": 39644, "x": null, "y": 0.37833333333333335}, {"type": "position", "time": 39693, "x": null, "y": 0.365}, {"type": "position", "time": 39743, "x": null, "y": 0.36333333333333334}, {"type": "position", "time": 39793, "x": null, "y": 0.36333333333333334}, {"type": "position", "time": 39843, "x": null, "y": 0.36}, {"type": "position", "time": 39894, "x": null, "y": 0.3566666666666667}, {"type": "position", "time": 40360, "x": null, "y": 0.3516666666666667}, {"type": "position", "time": 41365, "x": null, "y": 0.3516666666666667}, {"type": "position", "time": 42360, "x": null, "y": 0.3516666666666667}, {"type": "position", "time": 43361, "x": null, "y": 0.3516666666666667}, {"type": "position", "time": 44361, "x": null, "y": 0.3516666666666667}, {"type": "position", "time": 45360, "x": null, "y": 0.3516666666666667}, {"type": "position", "time": 46361, "x": null, "y": 0.3516666666666667}, {"type": "position", "time": 47360, "x": null, "y": 0.3516666666666667}, {"type": "position", "time": 48361, "x": null, "y": 0.3516666666666667}, {"type": "position", "time": 49362, "x": null, "y": 0.3516666666666667}, {"type": "position", "time": 50360, "x": null, "y": 0.3516666666666667}, {"type": "position", "time": 51361, "x": null, "y": 0.3516666666666667}, {"type": "position", "time": 52361, "x": null, "y": 0.3516666666666667}, {"type": "position", "time": 53360, "x": null, "y": 0.3516666666666667}, {"type": "position", "time": 54360, "x": null, "y": 0.3516666666666667}, {"type": "position", "time": 55360, "x": null, "y": 0.3516666666666667}, {"type": "position", "time": 56361, "x": null, "y": 0.3516666666666667}, {"type": "position", "time": 57360, "x": null, "y": 0.3516666666666667}, {"type": "position", "time": 58361, "x": null, "y": 0.3516666666666667}, {"type": "position", "time": 58465, "x": null, "y": 0.3516666666666667}, {"type": "position", "time": 58493, "x": null, "y": 0.3516666666666667}, {"type": "position", "time": 58543, "x": null, "y": 0.3516666666666667}, {"type": "position", "time": 58594, "x": null, "y": 0.3516666666666667}, {"type": "position", "time": 58643, "x": null, "y": 0.3516666666666667}, {"type": "position", "time": 58693, "x": null, "y": 0.3516666666666667}, {"type": "position", "time": 58743, "x": null, "y": 0.3516666666666667}, {"type": "position", "time": 58793, "x": null, "y": 0.3516666666666667}, {"type": "position", "time": 58844, "x": null, "y": 0.17166666666666666}, {"type": "position", "time": 58893, "x": null, "y": 0.29333333333333333}, {"type": "position", "time": 58943, "x": null, "y": 0.3}, {"type": "position", "time": 58993, "x": null, "y": 0.3}, {"type": "position", "time": 59044, "x": null, "y": 0.3}, {"type": "position", "time": 59093, "x": null, "y": 0.3}, {"type": "position", "time": 59144, "x": null, "y": 0.3}, {"type": "position", "time": 59194, "x": null, "y": 0.3}, {"type": "position", "time": 59243, "x": null, "y": 0.3}, {"type": "position", "time": 59293, "x": null, "y": 0.3}, {"type": "position", "time": 59343, "x": null, "y": 0.3}, {"type": "position", "time": 59393, "x": null, "y": 0.3}, {"type": "position", "time": 59443, "x": null, "y": 0.3}, {"type": "position", "time": 59493, "x": null, "y": 0.3}, {"type": "position", "time": 59543, "x": null, "y": 0.3}, {"type": "position", "time": 59593, "x": null, "y": 0.3}, {"type": "position", "time": 59643, "x": null, "y": 0.3}, {"type": "position", "time": 59693, "x": null, "y": 0.3}, {"type": "position", "time": 59743, "x": null, "y": 0.3}, {"type": "position", "time": 59793, "x": null, "y": 0.3}, {"type": "position", "time": 59843, "x": null, "y": 0.3}, {"type": "position", "time": 59893, "x": null, "y": 0.3}, {"type": "position", "time": 59943, "x": null, "y": 0.3}, {"type": "position", "time": 59993, "x": null, "y": 0.3}, {"type": "position", "time": 60044, "x": null, "y": 0.3}, {"type": "position", "time": 60094, "x": null, "y": 0.3}, {"type": "position", "time": 60144, "x": null, "y": 0.3}, {"type": "position", "time": 60194, "x": null, "y": 0.3}, {"type": "position", "time": 60243, "x": null, "y": 0.3}, {"type": "position", "time": 60294, "x": null, "y": 0.3}, {"type": "position", "time": 60343, "x": null, "y": 0.3}, {"type": "position", "time": 60393, "x": null, "y": 0.3}, {"type": "position", "time": 60443, "x": null, "y": 0.3}, {"type": "position", "time": 60493, "x": null, "y": 0.3}, {"type": "position", "time": 60543, "x": null, "y": 0.3}, {"type": "position", "time": 60594, "x": null, "y": 0.3}, {"type": "position", "time": 60643, "x": null, "y": 0.3983333333333333}, {"type": "position", "time": 60693, "x": null, "y": 0.3983333333333333}, {"type": "position", "time": 60743, "x": null, "y": 0.3983333333333333}, {"type": "position", "time": 60793, "x": null, "y": 0.3983333333333333}, {"type": "position", "time": 60843, "x": null, "y": 0.3983333333333333}, {"type": "position", "time": 60893, "x": null, "y": 0.4083333333333333}, {"type": "position", "time": 60943, "x": null, "y": 0.47}, {"type": "position", "time": 60993, "x": null, "y": 0.4866666666666667}, {"type": "position", "time": 61044, "x": null, "y": 0.5116666666666667}, {"type": "position", "time": 61093, "x": null, "y": 0.525}, {"type": "position", "time": 61144, "x": null, "y": 0.5233333333333333}, {"type": "position", "time": 61193, "x": null, "y": 0.52}, {"type": "position", "time": 61244, "x": null, "y": 0.52}, {"type": "position", "time": 61293, "x": null, "y": 0.515}, {"type": "position", "time": 61343, "x": null, "y": 0.5083333333333333}, {"type": "position", "time": 61393, "x": null, "y": 0.5066666666666667}, {"type": "position", "time": 61443, "x": null, "y": 0.5033333333333333}, {"type": "position", "time": 61494, "x": null, "y": 0.5033333333333333}, {"type": "position", "time": 61544, "x": null, "y": 0.5033333333333333}, {"type": "position", "time": 61593, "x": null, "y": 0.5033333333333333}, {"type": "position", "time": 61644, "x": null, "y": 0.5033333333333333}, {"type": "position", "time": 61694, "x": null, "y": 0.5033333333333333}, {"type": "position", "time": 61744, "x": null, "y": 0.5033333333333333}, {"type": "position", "time": 61793, "x": null, "y": 0.5033333333333333}, {"type": "position", "time": 61844, "x": null, "y": 0.5033333333333333}, {"type": "position", "time": 61894, "x": null, "y": 0.5033333333333333}, {"type": "position", "time": 61943, "x": null, "y": 0.5033333333333333}, {"type": "position", "time": 61993, "x": null, "y": 0.5033333333333333}, {"type": "position", "time": 62043, "x": null, "y": 0.5033333333333333}, {"type": "position", "time": 62093, "x": null, "y": 0.5033333333333333}, {"type": "position", "time": 62143, "x": null, "y": 0.5033333333333333}, {"type": "position", "time": 62193, "x": null, "y": 0.5033333333333333}, {"type": "position", "time": 62244, "x": null, "y": 0.5033333333333333}, {"type": "position", "time": 62294, "x": null, "y": 0.5033333333333333}, {"type": "position", "time": 62344, "x": null, "y": 0.5033333333333333}, {"type": "click", "time": 62400, "x": null, "y": 0.5033333333333333}, {"type": "position", "time": 62410, "x": null, "y": 0.5033333333333333}, {"type": "position", "time": 62444, "x": null, "y": 0.5033333333333333}, {"type": "position", "time": 62494, "x": null, "y": 0.5033333333333333}, {"type": "position", "time": 62544, "x": null, "y": 0.5033333333333333}, {"type": "position", "time": 62593, "x": null, "y": 0.5033333333333333}, {"type": "position", "time": 62644, "x": null, "y": 0.5033333333333333}, {"type": "position", "time": 62694, "x": null, "y": 0.5033333333333333}, {"type": "position", "time": 62744, "x": null, "y": 0.5033333333333333}, {"type": "position", "time": 62794, "x": null, "y": 0.5016666666666667}, {"type": "position", "time": 62845, "x": null, "y": 0.5}, {"type": "position", "time": 62893, "x": null, "y": 0.5}, {"type": "position", "time": 62944, "x": null, "y": 0.5216666666666666}, {"type": "position", "time": 62993, "x": null, "y": 0.5483333333333333}, {"type": "position", "time": 63043, "x": null, "y": 0.5583333333333333}, {"type": "position", "time": 63095, "x": null, "y": 0.5816666666666667}, {"type": "position", "time": 63144, "x": null, "y": 0.5866666666666667}, {"type": "position", "time": 63193, "x": null, "y": 0.5866666666666667}, {"type": "position", "time": 63243, "x": null, "y": 0.5866666666666667}, {"type": "position", "time": 63294, "x": null, "y": 0.5866666666666667}, {"type": "position", "time": 63343, "x": null, "y": 0.5866666666666667}, {"type": "position", "time": 63393, "x": null, "y": 0.5866666666666667}, {"type": "position", "time": 63443, "x": null, "y": 0.5866666666666667}, {"type": "position", "time": 63494, "x": null, "y": 0.5866666666666667}, {"type": "position", "time": 63543, "x": null, "y": 0.5866666666666667}, {"type": "position", "time": 63594, "x": null, "y": 0.5866666666666667}, {"type": "position", "time": 63643, "x": null, "y": 0.5866666666666667}, {"type": "position", "time": 63693, "x": null, "y": 0.5866666666666667}, {"type": "position", "time": 63743, "x": null, "y": 0.5866666666666667}, {"type": "position", "time": 63793, "x": null, "y": 0.5866666666666667}, {"type": "position", "time": 63844, "x": null, "y": 0.5866666666666667}, {"type": "position", "time": 63893, "x": null, "y": 0.7566666666666667}, {"type": "position", "time": 63943, "x": null, "y": 0.7566666666666667}, {"type": "position", "time": 63994, "x": null, "y": 0.7566666666666667}, {"type": "position", "time": 64044, "x": null, "y": 0.7566666666666667}, {"type": "position", "time": 64094, "x": null, "y": 0.7566666666666667}, {"type": "position", "time": 64143, "x": null, "y": 0.7566666666666667}, {"type": "position", "time": 64193, "x": null, "y": 0.7566666666666667}, {"type": "position", "time": 64243, "x": null, "y": 0.7566666666666667}, {"type": "position", "time": 64293, "x": null, "y": 0.7566666666666667}, {"type": "position", "time": 64344, "x": null, "y": 0.7566666666666667}, {"type": "position", "time": 64394, "x": null, "y": 0.7566666666666667}, {"type": "position", "time": 64443, "x": null, "y": 0.7566666666666667}, {"type": "position", "time": 64494, "x": null, "y": 0.7566666666666667}, {"type": "position", "time": 64543, "x": null, "y": 0.7566666666666667}, {"type": "position", "time": 64593, "x": null, "y": 0.7566666666666667}, {"type": "position", "time": 64645, "x": null, "y": 0.7566666666666667}, {"type": "position", "time": 64694, "x": null, "y": 0.7566666666666667}, {"type": "position", "time": 64744, "x": null, "y": 0.7566666666666667}, {"type": "position", "time": 64794, "x": null, "y": 0.7566666666666667}, {"type": "position", "time": 64843, "x": null, "y": 0.7566666666666667}, {"type": "position", "time": 64895, "x": null, "y": 0.7566666666666667}, {"type": "position", "time": 64944, "x": null, "y": 0.7566666666666667}, {"type": "position", "time": 64993, "x": null, "y": 0.7566666666666667}, {"type": "position", "time": 65043, "x": null, "y": 0.7566666666666667}, {"type": "position", "time": 65093, "x": null, "y": 0.7566666666666667}, {"type": "position", "time": 65143, "x": null, "y": 0.7566666666666667}, {"type": "position", "time": 65193, "x": null, "y": 0.7566666666666667}, {"type": "position", "time": 65243, "x": null, "y": 0.7566666666666667}, {"type": "position", "time": 65293, "x": null, "y": 0.7566666666666667}, {"type": "position", "time": 65344, "x": null, "y": 0.7566666666666667}, {"type": "position", "time": 65393, "x": null, "y": 0.7566666666666667}, {"type": "position", "time": 65444, "x": null, "y": 0.7566666666666667}, {"type": "position", "time": 65494, "x": null, "y": 0.7566666666666667}, {"type": "position", "time": 65544, "x": null, "y": 0.7566666666666667}, {"type": "position", "time": 65593, "x": null, "y": 0.7566666666666667}, {"type": "position", "time": 65643, "x": null, "y": 0.7566666666666667}, {"type": "position", "time": 65694, "x": null, "y": 0.7566666666666667}, {"type": "position", "time": 65744, "x": null, "y": 0.7566666666666667}, {"type": "position", "time": 65794, "x": null, "y": 0.7566666666666667}, {"type": "position", "time": 65844, "x": null, "y": 0.7566666666666667}, {"type": "position", "time": 65893, "x": null, "y": 0.7566666666666667}, {"type": "position", "time": 65943, "x": null, "y": 0.7566666666666667}, {"type": "position", "time": 65994, "x": null, "y": 0.7566666666666667}, {"type": "position", "time": 66043, "x": null, "y": 0.7566666666666667}, {"type": "position", "time": 66093, "x": null, "y": 0.7566666666666667}, {"type": "position", "time": 66144, "x": null, "y": 0.7566666666666667}, {"type": "position", "time": 66193, "x": null, "y": 0.7566666666666667}, {"type": "position", "time": 66243, "x": null, "y": 0.7566666666666667}, {"type": "position", "time": 66294, "x": null, "y": 0.7566666666666667}, {"type": "position", "time": 66343, "x": null, "y": 0.7566666666666667}, {"type": "position", "time": 66394, "x": null, "y": 0.7566666666666667}, {"type": "position", "time": 66443, "x": null, "y": 0.7566666666666667}, {"type": "position", "time": 66495, "x": null, "y": 0.7566666666666667}, {"type": "position", "time": 66545, "x": null, "y": 0.7566666666666667}, {"type": "position", "time": 66594, "x": null, "y": 0.7566666666666667}, {"type": "position", "time": 66644, "x": null, "y": 0.7566666666666667}, {"type": "position", "time": 66693, "x": null, "y": 0.7566666666666667}, {"type": "position", "time": 66744, "x": null, "y": 0.7566666666666667}, {"type": "position", "time": 66794, "x": null, "y": 0.7566666666666667}, {"type": "position", "time": 66844, "x": null, "y": 0.7566666666666667}, {"type": "position", "time": 66893, "x": null, "y": 0.7566666666666667}, {"type": "position", "time": 66944, "x": null, "y": 0.7566666666666667}, {"type": "position", "time": 66993, "x": null, "y": 0.7566666666666667}, {"type": "position", "time": 67043, "x": null, "y": 0.7566666666666667}, {"type": "position", "time": 67095, "x": null, "y": 0.7566666666666667}, {"type": "position", "time": 67144, "x": null, "y": 0.7566666666666667}, {"type": "position", "time": 67193, "x": null, "y": 0.7566666666666667}, {"type": "position", "time": 67243, "x": null, "y": 0.7566666666666667}, {"type": "position", "time": 67293, "x": null, "y": 0.7566666666666667}, {"type": "position", "time": 67344, "x": null, "y": 0.7566666666666667}, {"type": "position", "time": 67393, "x": null, "y": 0.7566666666666667}, {"type": "position", "time": 67443, "x": null, "y": 0.7566666666666667}, {"type": "position", "time": 67493, "x": null, "y": 0.7566666666666667}, {"type": "position", "time": 67543, "x": null, "y": 0.7566666666666667}, {"type": "position", "time": 67593, "x": null, "y": 0.7566666666666667}, {"type": "position", "time": 67644, "x": null, "y": 0.7566666666666667}, {"type": "position", "time": 67693, "x": null, "y": 0.7566666666666667}, {"type": "position", "time": 67743, "x": null, "y": 0.7566666666666667}, {"type": "position", "time": 67793, "x": null, "y": 0.7566666666666667}, {"type": "position", "time": 67843, "x": null, "y": 0.7566666666666667}, {"type": "position", "time": 67894, "x": null, "y": 0.7566666666666667}, {"type": "position", "time": 67944, "x": null, "y": 0.7566666666666667}, {"type": "position", "time": 67993, "x": null, "y": 0.7566666666666667}, {"type": "position", "time": 68043, "x": null, "y": 0.7566666666666667}, {"type": "position", "time": 68094, "x": null, "y": 0.7566666666666667}, {"type": "position", "time": 68143, "x": null, "y": 0.7566666666666667}, {"type": "position", "time": 68194, "x": null, "y": 0.7216666666666667}, {"type": "position", "time": 68245, "x": null, "y": 0.6933333333333334}, {"type": "position", "time": 68294, "x": null, "y": 0.6733333333333333}, {"type": "position", "time": 68343, "x": null, "y": 0.6583333333333333}, {"type": "position", "time": 68393, "x": null, "y": 0.6533333333333333}, {"type": "position", "time": 68443, "x": null, "y": 0.6533333333333333}, {"type": "position", "time": 68493, "x": null, "y": 0.6533333333333333}, {"type": "position", "time": 68543, "x": null, "y": 0.6533333333333333}, {"type": "position", "time": 68593, "x": null, "y": 0.6533333333333333}, {"type": "position", "time": 68644, "x": null, "y": 0.6533333333333333}, {"type": "position", "time": 68694, "x": null, "y": 0.6483333333333333}, {"type": "position", "time": 68743, "x": null, "y": 0.6283333333333333}, {"type": "position", "time": 68794, "x": null, "y": 0.6033333333333334}, {"type": "position", "time": 68843, "x": null, "y": 0.5883333333333334}, {"type": "position", "time": 68894, "x": null, "y": 0.5883333333333334}, {"type": "position", "time": 68944, "x": null, "y": 0.5883333333333334}, {"type": "position", "time": 68993, "x": null, "y": 0.5883333333333334}, {"type": "position", "time": 69043, "x": null, "y": 0.5883333333333334}, {"type": "position", "time": 69094, "x": null, "y": 0.5883333333333334}, {"type": "position", "time": 69143, "x": null, "y": 0.5883333333333334}, {"type": "position", "time": 69194, "x": null, "y": 0.5883333333333334}, {"type": "position", "time": 69243, "x": null, "y": 0.5883333333333334}, {"type": "position", "time": 69294, "x": null, "y": 0.5883333333333334}, {"type": "position", "time": 69344, "x": null, "y": 0.5883333333333334}, {"type": "position", "time": 69393, "x": null, "y": 0.5883333333333334}, {"type": "position", "time": 69443, "x": null, "y": 0.5883333333333334}, {"type": "position", "time": 69493, "x": null, "y": 0.5883333333333334}, {"type": "position", "time": 69544, "x": null, "y": 0.5883333333333334}, {"type": "position", "time": 69594, "x": null, "y": 0.5883333333333334}, {"type": "position", "time": 69644, "x": null, "y": 0.5883333333333334}, {"type": "position", "time": 69693, "x": null, "y": 0.5883333333333334}, {"type": "position", "time": 69743, "x": null, "y": 0.5883333333333334}, {"type": "position", "time": 69793, "x": null, "y": 0.5883333333333334}, {"type": "position", "time": 69843, "x": null, "y": 0.5883333333333334}, {"type": "position", "time": 69894, "x": null, "y": 0.5883333333333334}, {"type": "position", "time": 69943, "x": null, "y": 0.5883333333333334}, {"type": "position", "time": 69994, "x": null, "y": 0.59}, {"type": "position", "time": 70044, "x": null, "y": 0.59}, {"type": "position", "time": 70095, "x": null, "y": 0.5916666666666667}, {"type": "position", "time": 70143, "x": null, "y": 0.6133333333333333}, {"type": "position", "time": 70193, "x": null, "y": 0.6033333333333334}, {"type": "position", "time": 70243, "x": null, "y": 0.59}, {"type": "position", "time": 70293, "x": null, "y": 0.59}, {"type": "position", "time": 70344, "x": null, "y": 0.59}, {"type": "position", "time": 70395, "x": null, "y": 0.59}, {"type": "position", "time": 70443, "x": null, "y": 0.59}, {"type": "position", "time": 70493, "x": null, "y": 0.59}, {"type": "position", "time": 70544, "x": null, "y": 0.59}, {"type": "position", "time": 70593, "x": null, "y": 0.59}, {"type": "position", "time": 70644, "x": null, "y": 0.59}, {"type": "position", "time": 70693, "x": null, "y": 0.59}, {"type": "position", "time": 70743, "x": null, "y": 0.59}, {"type": "position", "time": 70793, "x": null, "y": 0.59}, {"type": "position", "time": 70844, "x": null, "y": 0.59}, {"type": "position", "time": 70893, "x": null, "y": 0.59}, {"type": "slider", "time": 70921, "value": 0.8}, {"type": "position", "time": 70943, "x": null, "y": 0.59}, {"type": "click", "time": 70993, "x": null, "y": 0.59}, {"type": "position", "time": 70996, "x": null, "y": 0.59}, {"type": "position", "time": 71043, "x": null, "y": 0.59}, {"type": "position", "time": 71094, "x": null, "y": 0.59}, {"type": "position", "time": 71143, "x": null, "y": 0.59}, {"type": "position", "time": 71194, "x": null, "y": 0.59}, {"type": "position", "time": 71244, "x": null, "y": 0.6083333333333333}, {"type": "position", "time": 71293, "x": null, "y": 0.695}, {"type": "position", "time": 71344, "x": null, "y": 0.75}, {"type": "position", "time": 71393, "x": null, "y": 0.7616666666666667}, {"type": "position", "time": 71444, "x": null, "y": 0.7616666666666667}, {"type": "position", "time": 71493, "x": null, "y": 0.7616666666666667}, {"type": "position", "time": 71545, "x": null, "y": 0.7533333333333333}, {"type": "position", "time": 71594, "x": null, "y": 0.7433333333333333}, {"type": "position", "time": 71643, "x": null, "y": 0.7216666666666667}, {"type": "position", "time": 71693, "x": null, "y": 0.715}, {"type": "position", "time": 71743, "x": null, "y": 0.705}, {"type": "position", "time": 71794, "x": null, "y": 0.7}, {"type": "position", "time": 71843, "x": null, "y": 0.7}, {"type": "click", "time": 71895, "x": null, "y": 0.7}, {"type": "position", "time": 71898, "x": null, "y": 0.7}, {"type": "position", "time": 71943, "x": null, "y": 0.7}, {"type": "position", "time": 71993, "x": null, "y": 0.7}, {"type": "position", "time": 72043, "x": null, "y": 0.7}, {"type": "position", "time": 72093, "x": null, "y": 0.7}, {"type": "position", "time": 72144, "x": null, "y": 0.7}, {"type": "position", "time": 72194, "x": null, "y": 0.695}, {"type": "position", "time": 72244, "x": null, "y": 0.6883333333333334}, {"type": "position", "time": 72295, "x": null, "y": 0.6883333333333334}, {"type": "position", "time": 72345, "x": null, "y": 0.6916666666666667}, {"type": "position", "time": 72394, "x": null, "y": 0.6933333333333334}, {"type": "position", "time": 72444, "x": null, "y": 0.6933333333333334}, {"type": "position", "time": 72494, "x": null, "y": 0.6933333333333334}, {"type": "position", "time": 72544, "x": null, "y": 0.6933333333333334}, {"type": "position", "time": 72594, "x": null, "y": 0.6933333333333334}, {"type": "position", "time": 72643, "x": null, "y": 0.6933333333333334}, {"type": "position", "time": 72693, "x": null, "y": 0.6933333333333334}, {"type": "position", "time": 72743, "x": null, "y": 0.6933333333333334}, {"type": "position", "time": 72794, "x": null, "y": 0.6933333333333334}, {"type": "position", "time": 72843, "x": null, "y": 0.6933333333333334}, {"type": "position", "time": 72895, "x": null, "y": 0.6933333333333334}, {"type": "position", "time": 72944, "x": null, "y": 0.6933333333333334}, {"type": "position", "time": 72993, "x": null, "y": 0.6933333333333334}, {"type": "position", "time": 73043, "x": null, "y": 0.6933333333333334}, {"type": "position", "time": 73093, "x": null, "y": 0.6933333333333334}, {"type": "position", "time": 73143, "x": null, "y": 0.6933333333333334}, {"type": "position", "time": 73193, "x": null, "y": 0.6933333333333334}, {"type": "position", "time": 73243, "x": null, "y": 0.6933333333333334}, {"type": "position", "time": 73293, "x": null, "y": 0.6933333333333334}, {"type": "position", "time": 73343, "x": null, "y": 0.6933333333333334}, {"type": "position", "time": 73394, "x": null, "y": 0.6933333333333334}, {"type": "position", "time": 73444, "x": null, "y": 0.6933333333333334}, {"type": "position", "time": 73493, "x": null, "y": 0.6933333333333334}, {"type": "position", "time": 73543, "x": null, "y": 0.6933333333333334}, {"type": "position", "time": 73593, "x": null, "y": 0.6933333333333334}, {"type": "position", "time": 73644, "x": null, "y": 0.6916666666666667}, {"type": "position", "time": 73694, "x": null, "y": 0.6783333333333333}, {"type": "position", "time": 73744, "x": null, "y": 0.6433333333333333}, {"type": "position", "time": 73794, "x": null, "y": 0.5866666666666667}, {"type": "position", "time": 73843, "x": null, "y": 0.5716666666666667}, {"type": "position", "time": 73895, "x": null, "y": 0.5716666666666667}, {"type": "position", "time": 73943, "x": null, "y": 0.5716666666666667}, {"type": "position", "time": 73993, "x": null, "y": 0.5616666666666666}, {"type": "position", "time": 74044, "x": null, "y": 0.5516666666666666}, {"type": "position", "time": 74093, "x": null, "y": 0.545}, {"type": "position", "time": 74144, "x": null, "y": 0.5416666666666666}, {"type": "position", "time": 74193, "x": null, "y": 0.535}, {"type": "position", "time": 74244, "x": null, "y": 0.5316666666666666}, {"type": "position", "time": 74293, "x": null, "y": 0.5316666666666666}, {"type": "click", "time": 74340, "x": null, "y": 0.5316666666666666}, {"type": "position", "time": 74343, "x": null, "y": 0.5316666666666666}, {"type": "position", "time": 74393, "x": null, "y": 0.5316666666666666}, {"type": "position", "time": 74443, "x": null, "y": 0.5316666666666666}, {"type": "position", "time": 74494, "x": null, "y": 0.5316666666666666}, {"type": "position", "time": 74543, "x": null, "y": 0.5316666666666666}, {"type": "position", "time": 74593, "x": null, "y": 0.5333333333333333}, {"type": "position", "time": 74643, "x": null, "y": 0.5666666666666667}, {"type": "position", "time": 74693, "x": null, "y": 0.6283333333333333}, {"type": "position", "time": 74743, "x": null, "y": 0.6283333333333333}, {"type": "position", "time": 74793, "x": null, "y": 0.6283333333333333}, {"type": "position", "time": 74843, "x": null, "y": 0.6283333333333333}, {"type": "position", "time": 74893, "x": null, "y": 0.6283333333333333}, {"type": "position", "time": 74943, "x": null, "y": 0.6283333333333333}, {"type": "position", "time": 74993, "x": null, "y": 0.6283333333333333}, {"type": "position", "time": 75043, "x": null, "y": 0.6283333333333333}, {"type": "position", "time": 75093, "x": null, "y": 0.6283333333333333}, {"type": "position", "time": 75143, "x": null, "y": 0.6283333333333333}, {"type": "position", "time": 75193, "x": null, "y": 0.6283333333333333}, {"type": "position", "time": 75243, "x": null, "y": 0.6283333333333333}, {"type": "position", "time": 75293, "x": null, "y": 0.6283333333333333}, {"type": "position", "time": 75343, "x": null, "y": 0.6283333333333333}, {"type": "position", "time": 75394, "x": null, "y": 0.6283333333333333}, {"type": "position", "time": 75444, "x": null, "y": 0.6283333333333333}, {"type": "position", "time": 75494, "x": null, "y": 0.6283333333333333}, {"type": "position", "time": 75544, "x": null, "y": 0.6283333333333333}, {"type": "position", "time": 75594, "x": null, "y": 0.6283333333333333}, {"type": "position", "time": 75645, "x": null, "y": 0.6283333333333333}, {"type": "position", "time": 75694, "x": null, "y": 0.6283333333333333}, {"type": "position", "time": 75744, "x": null, "y": 0.6283333333333333}, {"type": "position", "time": 75794, "x": null, "y": 0.6283333333333333}, {"type": "position", "time": 75844, "x": null, "y": 0.6283333333333333}, {"type": "position", "time": 75894, "x": null, "y": 0.6283333333333333}, {"type": "position", "time": 75944, "x": null, "y": 0.6283333333333333}, {"type": "position", "time": 75994, "x": null, "y": 0.6283333333333333}, {"type": "position", "time": 76043, "x": null, "y": 0.6283333333333333}, {"type": "position", "time": 76093, "x": null, "y": 0.6283333333333333}, {"type": "position", "time": 76143, "x": null, "y": 0.6283333333333333}, {"type": "position", "time": 76194, "x": null, "y": 0.6283333333333333}, {"type": "position", "time": 76244, "x": null, "y": 0.6283333333333333}, {"type": "position", "time": 76302, "x": null, "y": 0.6283333333333333}, {"type": "position", "time": 76343, "x": null, "y": 0.6283333333333333}, {"type": "keyup", "time": 76364, "key": "S", "keyCode": 83}, {"type": "position", "time": 76395, "x": null, "y": 0.6283333333333333}, {"type": "position", "time": 76444, "x": null, "y": 0.6283333333333333}, {"type": "position", "time": 76493, "x": null, "y": 0.6283333333333333}, {"type": "position", "time": 76545, "x": null, "y": 0.6283333333333333}, {"type": "position", "time": 76594, "x": null, "y": 0.6283333333333333}, {"type": "position", "time": 76644, "x": null, "y": 0.6283333333333333}, {"type": "position", "time": 76694, "x": null, "y": 0.6283333333333333}, {"type": "position", "time": 76743, "x": null, "y": 0.6283333333333333}, {"type": "position", "time": 76793, "x": null, "y": 0.6283333333333333}, {"type": "keyup", "time": 76813, "key": "H", "keyCode": 72}, {"type": "position", "time": 76843, "x": null, "y": 0.6283333333333333}, {"type": "position", "time": 76894, "x": null, "y": 0.6283333333333333}, {"type": "keyup", "time": 76930, "key": "E", "keyCode": 69}, {"type": "position", "time": 76943, "x": null, "y": 0.6283333333333333}, {"type": "keyup", "time": 76964, "key": " ", "keyCode": 32}, {"type": "position", "time": 76993, "x": null, "y": 0.6283333333333333}, {"type": "position", "time": 77045, "x": null, "y": 0.6283333333333333}, {"type": "position", "time": 77094, "x": null, "y": 0.6283333333333333}, {"type": "position", "time": 77143, "x": null, "y": 0.6283333333333333}, {"type": "position", "time": 77194, "x": null, "y": 0.6283333333333333}, {"type": "keyup", "time": 77239, "key": "D", "keyCode": 68}, {"type": "position", "time": 77244, "x": null, "y": 0.6283333333333333}, {"type": "position", "time": 77294, "x": null, "y": 0.6283333333333333}, {"type": "keyup", "time": 77305, "key": "I", "keyCode": 73}, {"type": "position", "time": 77344, "x": null, "y": 0.6283333333333333}, {"type": "position", "time": 77394, "x": null, "y": 0.6283333333333333}, {"type": "keyup", "time": 77398, "key": "D", "keyCode": 68}, {"type": "position", "time": 77444, "x": null, "y": 0.6283333333333333}, {"type": "position", "time": 77493, "x": null, "y": 0.6283333333333333}, {"type": "keyup", "time": 77510, "key": "N", "keyCode": 78}, {"type": "position", "time": 77543, "x": null, "y": 0.6283333333333333}, {"type": "position", "time": 77593, "x": null, "y": 0.6283333333333333}, {"type": "position", "time": 77644, "x": null, "y": 0.6283333333333333}, {"type": "position", "time": 77694, "x": null, "y": 0.6283333333333333}, {"type": "position", "time": 77744, "x": null, "y": 0.6283333333333333}, {"type": "position", "time": 77793, "x": null, "y": 0.6283333333333333}, {"type": "keyup", "time": 77830, "key": "T", "keyCode": 84}, {"type": "position", "time": 77843, "x": null, "y": 0.6283333333333333}, {"type": "position", "time": 77893, "x": null, "y": 0.6283333333333333}, {"type": "position", "time": 77943, "x": null, "y": 0.6283333333333333}, {"type": "position", "time": 77993, "x": null, "y": 0.6283333333333333}, {"type": "position", "time": 78044, "x": null, "y": 0.6283333333333333}, {"type": "position", "time": 78093, "x": null, "y": 0.6283333333333333}, {"type": "position", "time": 78144, "x": null, "y": 0.6283333333333333}, {"type": "keyup", "time": 78171, "key": "\b", "keyCode": 8}, {"type": "position", "time": 78193, "x": null, "y": 0.6283333333333333}, {"type": "position", "time": 78243, "x": null, "y": 0.6283333333333333}, {"type": "position", "time": 78299, "x": null, "y": 0.6283333333333333}, {"type": "position", "time": 78345, "x": null, "y": 0.6283333333333333}, {"type": "position", "time": 78393, "x": null, "y": 0.6283333333333333}, {"type": "keyup", "time": 78439, "key": "\u00de", "keyCode": 222}, {"type": "position", "time": 78443, "x": null, "y": 0.6283333333333333}, {"type": "position", "time": 78493, "x": null, "y": 0.6283333333333333}, {"type": "keyup", "time": 78537, "key": "T", "keyCode": 84}, {"type": "position", "time": 78543, "x": null, "y": 0.6283333333333333}, {"type": "position", "time": 78593, "x": null, "y": 0.6283333333333333}, {"type": "keyup", "time": 78612, "key": " ", "keyCode": 32}, {"type": "position", "time": 78643, "x": null, "y": 0.6283333333333333}, {"type": "position", "time": 78693, "x": null, "y": 0.6283333333333333}, {"type": "position", "time": 78744, "x": null, "y": 0.6283333333333333}, {"type": "position", "time": 78793, "x": null, "y": 0.6283333333333333}, {"type": "position", "time": 78843, "x": null, "y": 0.6283333333333333}, {"type": "position", "time": 78893, "x": null, "y": 0.6283333333333333}, {"type": "position", "time": 78943, "x": null, "y": 0.6283333333333333}, {"type": "position", "time": 78994, "x": null, "y": 0.6283333333333333}, {"type": "position", "time": 79044, "x": null, "y": 0.6283333333333333}, {"type": "position", "time": 79094, "x": null, "y": 0.6283333333333333}, {"type": "keyup", "time": 79120, "key": "P", "keyCode": 80}, {"type": "position", "time": 79144, "x": null, "y": 0.6283333333333333}, {"type": "position", "time": 79193, "x": null, "y": 0.6283333333333333}, {"type": "position", "time": 79244, "x": null, "y": 0.6283333333333333}, {"type": "keyup", "time": 79293, "key": "U", "keyCode": 85}, {"type": "position", "time": 79294, "x": null, "y": 0.6283333333333333}, {"type": "position", "time": 79345, "x": null, "y": 0.6283333333333333}, {"type": "keyup", "time": 79365, "key": "T", "keyCode": 84}, {"type": "position", "time": 79393, "x": null, "y": 0.6283333333333333}, {"type": "keyup", "time": 79405, "key": " ", "keyCode": 32}, {"type": "position", "time": 79443, "x": null, "y": 0.6283333333333333}, {"type": "position", "time": 79494, "x": null, "y": 0.6283333333333333}, {"type": "keyup", "time": 79495, "key": "A", "keyCode": 65}, {"type": "position", "time": 79544, "x": null, "y": 0.6283333333333333}, {"type": "position", "time": 79593, "x": null, "y": 0.6283333333333333}, {"type": "position", "time": 79644, "x": null, "y": 0.6283333333333333}, {"type": "keyup", "time": 79687, "key": "E", "keyCode": 69}, {"type": "position", "time": 79693, "x": null, "y": 0.6283333333333333}, {"type": "position", "time": 79743, "x": null, "y": 0.6283333333333333}, {"type": "position", "time": 79794, "x": null, "y": 0.6283333333333333}, {"type": "position", "time": 79844, "x": null, "y": 0.6283333333333333}, {"type": "keyup", "time": 79854, "key": "\b", "keyCode": 8}, {"type": "position", "time": 79894, "x": null, "y": 0.6283333333333333}, {"type": "position", "time": 79943, "x": null, "y": 0.6283333333333333}, {"type": "position", "time": 79993, "x": null, "y": 0.6283333333333333}, {"type": "keyup", "time": 80026, "key": "\b", "keyCode": 8}, {"type": "position", "time": 80043, "x": null, "y": 0.6283333333333333}, {"type": "keyup", "time": 80086, "key": "E", "keyCode": 69}, {"type": "position", "time": 80093, "x": null, "y": 0.6283333333333333}, {"type": "keyup", "time": 80131, "key": "F", "keyCode": 70}, {"type": "position", "time": 80143, "x": null, "y": 0.6283333333333333}, {"type": "position", "time": 80194, "x": null, "y": 0.6283333333333333}, {"type": "position", "time": 80244, "x": null, "y": 0.6283333333333333}, {"type": "keyup", "time": 80263, "key": "F", "keyCode": 70}, {"type": "position", "time": 80294, "x": null, "y": 0.6283333333333333}, {"type": "position", "time": 80343, "x": null, "y": 0.6283333333333333}, {"type": "position", "time": 80394, "x": null, "y": 0.6283333333333333}, {"type": "keyup", "time": 80404, "key": "O", "keyCode": 79}, {"type": "position", "time": 80443, "x": null, "y": 0.6283333333333333}, {"type": "keyup", "time": 80479, "key": "R", "keyCode": 82}, {"type": "position", "time": 80494, "x": null, "y": 0.6283333333333333}, {"type": "position", "time": 80544, "x": null, "y": 0.6283333333333333}, {"type": "keyup", "time": 80576, "key": "T", "keyCode": 84}, {"type": "position", "time": 80595, "x": null, "y": 0.6283333333333333}, {"type": "position", "time": 80644, "x": null, "y": 0.6283333333333333}, {"type": "keyup", "time": 80649, "key": " ", "keyCode": 32}, {"type": "position", "time": 80693, "x": null, "y": 0.6283333333333333}, {"type": "keyup", "time": 80727, "key": "I", "keyCode": 73}, {"type": "position", "time": 80744, "x": null, "y": 0.6283333333333333}, {"type": "position", "time": 80794, "x": null, "y": 0.6283333333333333}, {"type": "keyup", "time": 80795, "key": "N", "keyCode": 78}, {"type": "position", "time": 80844, "x": null, "y": 0.6283333333333333}, {"type": "keyup", "time": 80877, "key": "T", "keyCode": 84}, {"type": "position", "time": 80894, "x": null, "y": 0.6283333333333333}, {"type": "position", "time": 80944, "x": null, "y": 0.6283333333333333}, {"type": "keyup", "time": 80944, "key": "O", "keyCode": 79}, {"type": "position", "time": 80993, "x": null, "y": 0.6283333333333333}, {"type": "position", "time": 81043, "x": null, "y": 0.6283333333333333}, {"type": "keyup", "time": 81051, "key": " ", "keyCode": 32}, {"type": "position", "time": 81094, "x": null, "y": 0.6283333333333333}, {"type": "position", "time": 81144, "x": null, "y": 0.6283333333333333}, {"type": "position", "time": 81194, "x": null, "y": 0.6283333333333333}, {"type": "position", "time": 81244, "x": null, "y": 0.6283333333333333}, {"type": "position", "time": 81295, "x": null, "y": 0.6283333333333333}, {"type": "position", "time": 81344, "x": null, "y": 0.6283333333333333}, {"type": "keyup", "time": 81357, "key": "I", "keyCode": 73}, {"type": "position", "time": 81393, "x": null, "y": 0.6283333333333333}, {"type": "keyup", "time": 81402, "key": "T", "keyCode": 84}, {"type": "position", "time": 81444, "x": null, "y": 0.6283333333333333}, {"type": "position", "time": 81494, "x": null, "y": 0.6283333333333333}, {"type": "position", "time": 81544, "x": null, "y": 0.6283333333333333}, {"type": "position", "time": 81594, "x": null, "y": 0.6283333333333333}, {"type": "position", "time": 81643, "x": null, "y": 0.6283333333333333}, {"type": "keyup", "time": 81663, "key": "\t", "keyCode": 9}, {"type": "position", "time": 81694, "x": null, "y": 0.6283333333333333}, {"type": "keyup", "time": 81729, "key": " ", "keyCode": 32}, {"type": "click", "time": 81735, "x": null, "y": 0.6283333333333333}, {"type": "position", "time": 81744, "x": null, "y": 0.6283333333333333}, {"type": "position", "time": 81793, "x": null, "y": 0.6283333333333333}, {"type": "position", "time": 81844, "x": null, "y": 0.6283333333333333}, {"type": "position", "time": 81894, "x": null, "y": 0.6283333333333333}, {"type": "position", "time": 81943, "x": null, "y": 0.6283333333333333}, {"type": "position", "time": 81994, "x": null, "y": 0.6283333333333333}, {"type": "position", "time": 82043, "x": null, "y": 0.6283333333333333}, {"type": "position", "time": 82093, "x": null, "y": 0.6283333333333333}, {"type": "position", "time": 82143, "x": null, "y": 0.6283333333333333}, {"type": "position", "time": 82194, "x": null, "y": 0.6283333333333333}, {"type": "position", "time": 82244, "x": null, "y": 0.6283333333333333}, {"type": "position", "time": 82293, "x": null, "y": 0.6283333333333333}, {"type": "position", "time": 82343, "x": null, "y": 0.6283333333333333}, {"type": "position", "time": 82394, "x": null, "y": 0.6266666666666667}, {"type": "position", "time": 82443, "x": null, "y": 0.63}, {"type": "position", "time": 82494, "x": null, "y": 0.5966666666666667}, {"type": "position", "time": 82546, "x": null, "y": 0.4483333333333333}, {"type": "position", "time": 82593, "x": null, "y": 0.43833333333333335}, {"type": "position", "time": 82644, "x": null, "y": 0.45166666666666666}, {"type": "position", "time": 82694, "x": null, "y": 0.535}, {"type": "position", "time": 82744, "x": null, "y": 0.6166666666666667}, {"type": "position", "time": 82793, "x": null, "y": 0.6316666666666667}, {"type": "position", "time": 82844, "x": null, "y": 0.6316666666666667}, {"type": "position", "time": 82894, "x": null, "y": 0.6433333333333333}, {"type": "position", "time": 82944, "x": null, "y": 0.6716666666666666}, {"type": "position", "time": 82994, "x": null, "y": 0.6783333333333333}, {"type": "position", "time": 83044, "x": null, "y": 0.6933333333333334}, {"type": "position", "time": 83095, "x": null, "y": 0.6916666666666667}, {"type": "position", "time": 83145, "x": null, "y": 0.6916666666666667}, {"type": "position", "time": 83194, "x": null, "y": 0.6916666666666667}, {"type": "position", "time": 83243, "x": null, "y": 0.6916666666666667}, {"type": "position", "time": 83294, "x": null, "y": 0.6916666666666667}, {"type": "position", "time": 83345, "x": null, "y": 0.6916666666666667}, {"type": "slider", "time": 83368, "value": 0.79}, {"type": "position", "time": 83394, "x": null, "y": 0.6916666666666667}, {"type": "position", "time": 83444, "x": null, "y": 0.6916666666666667}, {"type": "click", "time": 83447, "x": null, "y": 0.6916666666666667}, {"type": "position", "time": 83493, "x": null, "y": 0.6916666666666667}, {"type": "position", "time": 83544, "x": null, "y": 0.6933333333333334}, {"type": "position", "time": 83595, "x": null, "y": 0.6933333333333334}, {"type": "position", "time": 83643, "x": null, "y": 0.6933333333333334}, {"type": "position", "time": 83695, "x": null, "y": 0.6916666666666667}, {"type": "position", "time": 83745, "x": null, "y": 0.69}, {"type": "position", "time": 83794, "x": null, "y": 0.6916666666666667}, {"type": "slider", "time": 83839, "value": 0.73}, {"type": "position", "time": 83843, "x": null, "y": 0.6933333333333334}, {"type": "position", "time": 83894, "x": null, "y": 0.6933333333333334}, {"type": "position", "time": 83944, "x": null, "y": 0.6933333333333334}, {"type": "slider", "time": 83985, "value": 0.72}, {"type": "position", "time": 83996, "x": null, "y": 0.695}, {"type": "position", "time": 84044, "x": null, "y": 0.695}, {"type": "slider", "time": 84057, "value": 0.71}, {"type": "slider", "time": 84083, "value": 0.7}, {"type": "position", "time": 84094, "x": null, "y": 0.6966666666666667}, {"type": "slider", "time": 84106, "value": 0.69}, {"type": "slider", "time": 84125, "value": 0.68}, {"type": "position", "time": 84145, "x": null, "y": 0.7}, {"type": "slider", "time": 84147, "value": 0.67}, {"type": "slider", "time": 84173, "value": 0.66}, {"type": "position", "time": 84194, "x": null, "y": 0.7016666666666667}, {"type": "slider", "time": 84235, "value": 0.65}, {"type": "position", "time": 84243, "x": null, "y": 0.7016666666666667}, {"type": "position", "time": 84293, "x": null, "y": 0.7016666666666667}, {"type": "position", "time": 84343, "x": null, "y": 0.7016666666666667}, {"type": "click", "time": 84383, "x": null, "y": 0.7016666666666667}, {"type": "position", "time": 84393, "x": null, "y": 0.7016666666666667}, {"type": "position", "time": 84445, "x": null, "y": 0.7033333333333334}, {"type": "position", "time": 84493, "x": null, "y": 0.7333333333333333}, {"type": "position", "time": 84544, "x": null, "y": 0.7716666666666666}, {"type": "position", "time": 84594, "x": null, "y": 0.795}, {"type": "position", "time": 84644, "x": null, "y": 0.8}, {"type": "position", "time": 84693, "x": null, "y": 0.8033333333333333}, {"type": "position", "time": 84743, "x": null, "y": 0.8033333333333333}, {"type": "position", "time": 84793, "x": null, "y": 0.8016666666666666}, {"type": "position", "time": 84844, "x": null, "y": 0.8016666666666666}, {"type": "position", "time": 84894, "x": null, "y": 0.8016666666666666}, {"type": "click", "time": 84921, "x": null, "y": 0.8016666666666666}, {"type": "position", "time": 84944, "x": null, "y": 0.8016666666666666}, {"type": "position", "time": 84994, "x": null, "y": 0.8016666666666666}, {"type": "position", "time": 85044, "x": null, "y": 0.8016666666666666}, {"type": "position", "time": 85094, "x": null, "y": 0.8016666666666666}, {"type": "position", "time": 85144, "x": null, "y": 0.8016666666666666}, {"type": "position", "time": 85193, "x": null, "y": 0.8016666666666666}, {"type": "position", "time": 85245, "x": null, "y": 0.79}, {"type": "position", "time": 85293, "x": null, "y": 0.7183333333333334}, {"type": "position", "time": 85343, "x": null, "y": 0.6366666666666667}, {"type": "position", "time": 85394, "x": null, "y": 0.6133333333333333}, {"type": "position", "time": 85444, "x": null, "y": 0.6133333333333333}, {"type": "position", "time": 85493, "x": null, "y": 0.6133333333333333}, {"type": "position", "time": 85543, "x": null, "y": 0.6133333333333333}, {"type": "position", "time": 85594, "x": null, "y": 0.6133333333333333}, {"type": "position", "time": 85644, "x": null, "y": 0.6133333333333333}, {"type": "position", "time": 85693, "x": null, "y": 0.6133333333333333}, {"type": "position", "time": 85743, "x": null, "y": 0.6133333333333333}, {"type": "position", "time": 85793, "x": null, "y": 0.6266666666666667}, {"type": "position", "time": 85845, "x": null, "y": 0.65}, {"type": "position", "time": 85894, "x": null, "y": 0.6733333333333333}, {"type": "position", "time": 85943, "x": null, "y": 0.6733333333333333}, {"type": "position", "time": 85994, "x": null, "y": 0.6733333333333333}, {"type": "position", "time": 86043, "x": null, "y": 0.6733333333333333}, {"type": "position", "time": 86093, "x": null, "y": 0.6733333333333333}, {"type": "position", "time": 86143, "x": null, "y": 0.6916666666666667}, {"type": "position", "time": 86195, "x": null, "y": 0.72}, {"type": "position", "time": 86243, "x": null, "y": 0.7416666666666667}, {"type": "position", "time": 86295, "x": null, "y": 0.745}, {"type": "position", "time": 86343, "x": null, "y": 0.76}, {"type": "position", "time": 86393, "x": null, "y": 0.76}, {"type": "position", "time": 86444, "x": null, "y": 0.76}, {"type": "position", "time": 86493, "x": null, "y": 0.76}, {"type": "position", "time": 86543, "x": null, "y": 0.76}, {"type": "position", "time": 86593, "x": null, "y": 0.76}, {"type": "position", "time": 86644, "x": null, "y": 0.76}, {"type": "position", "time": 86693, "x": null, "y": 0.76}, {"type": "position", "time": 86744, "x": null, "y": 0.76}, {"type": "position", "time": 86793, "x": null, "y": 0.76}, {"type": "position", "time": 86844, "x": null, "y": 0.76}, {"type": "position", "time": 86894, "x": null, "y": 0.76}, {"type": "position", "time": 86943, "x": null, "y": 0.76}, {"type": "position", "time": 86994, "x": null, "y": 0.76}, {"type": "position", "time": 87044, "x": null, "y": 0.7616666666666667}, {"type": "position", "time": 87093, "x": null, "y": 0.7616666666666667}, {"type": "position", "time": 87143, "x": null, "y": 0.7633333333333333}, {"type": "position", "time": 87194, "x": null, "y": 0.7633333333333333}, {"type": "position", "time": 87244, "x": null, "y": 0.7633333333333333}, {"type": "position", "time": 87294, "x": null, "y": 0.7633333333333333}, {"type": "position", "time": 87344, "x": null, "y": 0.7633333333333333}, {"type": "position", "time": 87393, "x": null, "y": 0.7633333333333333}, {"type": "position", "time": 87443, "x": null, "y": 0.7633333333333333}, {"type": "position", "time": 87493, "x": null, "y": 0.7633333333333333}, {"type": "position", "time": 87543, "x": null, "y": 0.7633333333333333}, {"type": "position", "time": 87593, "x": null, "y": 0.7633333333333333}, {"type": "position", "time": 87643, "x": null, "y": 0.7633333333333333}, {"type": "position", "time": 87693, "x": null, "y": 0.7633333333333333}, {"type": "position", "time": 87744, "x": null, "y": 0.7633333333333333}, {"type": "position", "time": 87794, "x": null, "y": 0.7633333333333333}, {"type": "position", "time": 87845, "x": null, "y": 0.7633333333333333}, {"type": "position", "time": 87894, "x": null, "y": 0.7633333333333333}, {"type": "position", "time": 87943, "x": null, "y": 0.7633333333333333}, {"type": "position", "time": 87993, "x": null, "y": 0.7633333333333333}, {"type": "position", "time": 88045, "x": null, "y": 0.7633333333333333}, {"type": "position", "time": 88094, "x": null, "y": 0.7633333333333333}, {"type": "position", "time": 88144, "x": null, "y": 0.7633333333333333}, {"type": "position", "time": 88193, "x": null, "y": 0.7633333333333333}, {"type": "position", "time": 88243, "x": null, "y": 0.7633333333333333}, {"type": "position", "time": 88293, "x": null, "y": 0.7633333333333333}, {"type": "position", "time": 88344, "x": null, "y": 0.7633333333333333}, {"type": "position", "time": 88393, "x": null, "y": 0.7633333333333333}, {"type": "position", "time": 88444, "x": null, "y": 0.7633333333333333}, {"type": "position", "time": 88494, "x": null, "y": 0.7633333333333333}, {"type": "position", "time": 88544, "x": null, "y": 0.7633333333333333}, {"type": "position", "time": 88593, "x": null, "y": 0.7633333333333333}, {"type": "position", "time": 88643, "x": null, "y": 0.7633333333333333}, {"type": "position", "time": 88693, "x": null, "y": 0.7633333333333333}, {"type": "position", "time": 88743, "x": null, "y": 0.7633333333333333}, {"type": "position", "time": 88793, "x": null, "y": 0.7633333333333333}, {"type": "position", "time": 88843, "x": null, "y": 0.7633333333333333}, {"type": "position", "time": 88893, "x": null, "y": 0.7633333333333333}, {"type": "position", "time": 88943, "x": null, "y": 0.7633333333333333}, {"type": "position", "time": 88995, "x": null, "y": 0.7633333333333333}, {"type": "position", "time": 89044, "x": null, "y": 0.7633333333333333}, {"type": "position", "time": 89094, "x": null, "y": 0.7633333333333333}, {"type": "position", "time": 89144, "x": null, "y": 0.7633333333333333}, {"type": "position", "time": 89195, "x": null, "y": 0.7633333333333333}, {"type": "position", "time": 89245, "x": null, "y": 0.7633333333333333}, {"type": "position", "time": 89294, "x": null, "y": 0.7633333333333333}, {"type": "position", "time": 89343, "x": null, "y": 0.7633333333333333}, {"type": "position", "time": 89394, "x": null, "y": 0.7633333333333333}, {"type": "position", "time": 89444, "x": null, "y": 0.7633333333333333}, {"type": "position", "time": 89495, "x": null, "y": 0.7633333333333333}, {"type": "position", "time": 89544, "x": null, "y": 0.7633333333333333}, {"type": "position", "time": 89594, "x": null, "y": 0.7633333333333333}, {"type": "position", "time": 89644, "x": null, "y": 0.7633333333333333}, {"type": "position", "time": 89694, "x": null, "y": 0.7633333333333333}, {"type": "position", "time": 89743, "x": null, "y": 0.7633333333333333}, {"type": "position", "time": 89794, "x": null, "y": 0.7633333333333333}, {"type": "position", "time": 89844, "x": null, "y": 0.7633333333333333}, {"type": "position", "time": 89893, "x": null, "y": 0.7633333333333333}, {"type": "position", "time": 89943, "x": null, "y": 0.7633333333333333}, {"type": "position", "time": 89994, "x": null, "y": 0.7633333333333333}, {"type": "position", "time": 90044, "x": null, "y": 0.7633333333333333}, {"type": "position", "time": 90094, "x": null, "y": 0.7633333333333333}, {"type": "position", "time": 90143, "x": null, "y": 0.7633333333333333}, {"type": "position", "time": 90193, "x": null, "y": 0.7633333333333333}, {"type": "position", "time": 90244, "x": null, "y": 0.7633333333333333}, {"type": "position", "time": 90293, "x": null, "y": 0.7633333333333333}, {"type": "position", "time": 90344, "x": null, "y": 0.7633333333333333}, {"type": "position", "time": 90393, "x": null, "y": 0.7633333333333333}, {"type": "position", "time": 90444, "x": null, "y": 0.7633333333333333}, {"type": "position", "time": 90493, "x": null, "y": 0.7633333333333333}, {"type": "position", "time": 90544, "x": null, "y": 0.7633333333333333}, {"type": "position", "time": 90594, "x": null, "y": 0.7633333333333333}, {"type": "position", "time": 90644, "x": null, "y": 0.7633333333333333}, {"type": "position", "time": 90694, "x": null, "y": 0.7633333333333333}, {"type": "position", "time": 90744, "x": null, "y": 0.7633333333333333}, {"type": "position", "time": 90794, "x": null, "y": 0.7633333333333333}, {"type": "position", "time": 90844, "x": null, "y": 0.7633333333333333}, {"type": "position", "time": 90893, "x": null, "y": 0.7633333333333333}, {"type": "position", "time": 90944, "x": null, "y": 0.7633333333333333}, {"type": "position", "time": 90994, "x": null, "y": 0.7633333333333333}, {"type": "position", "time": 91043, "x": null, "y": 0.7633333333333333}, {"type": "position", "time": 91094, "x": null, "y": 0.7633333333333333}, {"type": "position", "time": 91143, "x": null, "y": 0.7633333333333333}, {"type": "position", "time": 91194, "x": null, "y": 0.7633333333333333}, {"type": "position", "time": 91243, "x": null, "y": 0.7633333333333333}, {"type": "position", "time": 91294, "x": null, "y": 0.7633333333333333}, {"type": "position", "time": 91344, "x": null, "y": 0.7633333333333333}, {"type": "position", "time": 91394, "x": null, "y": 0.7633333333333333}, {"type": "position", "time": 91444, "x": null, "y": 0.7633333333333333}, {"type": "position", "time": 91494, "x": null, "y": 0.7633333333333333}, {"type": "position", "time": 91544, "x": null, "y": 0.7633333333333333}, {"type": "position", "time": 91594, "x": null, "y": 0.7633333333333333}, {"type": "position", "time": 91643, "x": null, "y": 0.7633333333333333}, {"type": "position", "time": 91694, "x": null, "y": 0.7633333333333333}, {"type": "position", "time": 91743, "x": null, "y": 0.7633333333333333}, {"type": "position", "time": 91795, "x": null, "y": 0.7633333333333333}, {"type": "position", "time": 91844, "x": null, "y": 0.7633333333333333}, {"type": "position", "time": 91894, "x": null, "y": 0.7633333333333333}, {"type": "position", "time": 91943, "x": null, "y": 0.7633333333333333}, {"type": "position", "time": 91993, "x": null, "y": 0.7633333333333333}, {"type": "position", "time": 92043, "x": null, "y": 0.7633333333333333}, {"type": "position", "time": 92093, "x": null, "y": 0.7633333333333333}, {"type": "position", "time": 92145, "x": null, "y": 0.7633333333333333}, {"type": "position", "time": 92194, "x": null, "y": 0.7633333333333333}, {"type": "position", "time": 92245, "x": null, "y": 0.7633333333333333}, {"type": "position", "time": 92294, "x": null, "y": 0.7633333333333333}, {"type": "position", "time": 92343, "x": null, "y": 0.7633333333333333}, {"type": "position", "time": 92393, "x": null, "y": 0.7633333333333333}, {"type": "position", "time": 92444, "x": null, "y": 0.7633333333333333}, {"type": "position", "time": 92493, "x": null, "y": 0.7633333333333333}, {"type": "position", "time": 92543, "x": null, "y": 0.7633333333333333}, {"type": "position", "time": 92593, "x": null, "y": 0.7633333333333333}, {"type": "position", "time": 92644, "x": null, "y": 0.7633333333333333}, {"type": "position", "time": 92693, "x": null, "y": 0.7633333333333333}, {"type": "position", "time": 92745, "x": null, "y": 0.7633333333333333}, {"type": "position", "time": 92794, "x": null, "y": 0.7633333333333333}, {"type": "position", "time": 92844, "x": null, "y": 0.7633333333333333}, {"type": "position", "time": 92894, "x": null, "y": 0.7633333333333333}, {"type": "position", "time": 92944, "x": null, "y": 0.7633333333333333}, {"type": "position", "time": 92994, "x": null, "y": 0.7633333333333333}, {"type": "position", "time": 93043, "x": null, "y": 0.7633333333333333}, {"type": "position", "time": 93094, "x": null, "y": 0.7633333333333333}, {"type": "position", "time": 93144, "x": null, "y": 0.7633333333333333}, {"type": "position", "time": 93194, "x": null, "y": 0.76}, {"type": "position", "time": 93245, "x": null, "y": 0.74}, {"type": "position", "time": 93294, "x": null, "y": 0.7133333333333334}, {"type": "position", "time": 93344, "x": null, "y": 0.6566666666666666}, {"type": "position", "time": 93394, "x": null, "y": 0.62}, {"type": "position", "time": 93444, "x": null, "y": 0.6}, {"type": "position", "time": 93494, "x": null, "y": 0.555}, {"type": "position", "time": 93545, "x": null, "y": 0.5283333333333333}, {"type": "position", "time": 93594, "x": null, "y": 0.52}, {"type": "position", "time": 93643, "x": null, "y": 0.52}, {"type": "position", "time": 93693, "x": null, "y": 0.52}, {"type": "position", "time": 93744, "x": null, "y": 0.52}, {"type": "position", "time": 93793, "x": null, "y": 0.52}, {"type": "positio