{"ApprovalTime": "2016-03-10T20:50:27Z", "SubmitTime": "2016-03-10T20:48:42Z", "AssignmentId": "3WJ1OXY92AGOA62W6TUNZ6O3ZST8A8", "HITId": "38G0E1M85M53D7EEUOHN21OJ7HQVU5", "answers": {"data": {"trials": [{"story": "guitar", "time": 10731, "name": "Matthew", "rt": 9695, "blocknum": 0, "qtype": "probability", "response": 0.54, "trialnum": 1, "gender": "male", "qnum": 0}, {"story": "guitar", "time": 10731, "name": "Matthew", "rt": 9695, "blocknum": 0, "qtype": "ungrammatical", "trialnum": 1, "gender": "male", "qnum": 0}, {"story": "guitar", "time": 24442, "name": "John", "rt": 13708, "blocknum": 0, "qtype": "explanation", "response": "he wasn't playing hard enough", "trialnum": 2, "gender": "male", "qnum": 1}, {"story": "guitar", "time": 27338, "name": "John", "rt": 2883, "blocknum": 0, "qtype": "probability", "response": 0.24, "trialnum": 3, "gender": "male", "qnum": 2}, {"story": "guitar", "time": 27338, "name": "John", "rt": 2883, "blocknum": 0, "qtype": "ungrammatical", "trialnum": 3, "gender": "male", "qnum": 2}, {"story": "guitar", "time": 36282, "name": "Zach", "rt": 8938, "blocknum": 0, "qtype": "probability", "response": 0.18, "trialnum": 4, "gender": "male", "qnum": 3}, {"story": "guitar", "time": 36282, "name": "Zach", "rt": 8938, "blocknum": 0, "qtype": "ungrammatical", "response": false, "trialnum": 4, "gender": "male", "qnum": 3}, {"story": "guitar", "time": 46499, "name": "Luis", "rt": 10213, "blocknum": 0, "qtype": "probability", "response": 0.33, "trialnum": 5, "gender": "male", "qnum": 4}, {"story": "guitar", "time": 46499, "name": "Luis", "rt": 10213, "blocknum": 0, "qtype": "ungrammatical", "response": false, "trialnum": 5, "gender": "male", "qnum": 4}, {"story": "guitar", "time": 54354, "name": "Lauren", "rt": 7850, "blocknum": 0, "qtype": "probability", "response": 0.18, "trialnum": 6, "gender": "female", "qnum": 5}, {"story": "guitar", "time": 54354, "name": "Lauren", "rt": 7850, "blocknum": 0, "qtype": "ungrammatical", "response": false, "trialnum": 6, "gender": "female", "qnum": 5}, {"story": "cooking", "time": 58971, "name": "Justin", "rt": 4612, "blocknum": 1, "qtype": "probability", "response": 0.69, "trialnum": 8, "gender": "male", "qnum": 0}, {"story": "cooking", "time": 58971, "name": "Justin", "rt": 4612, "blocknum": 1, "qtype": "ungrammatical", "trialnum": 8, "gender": "male", "qnum": 0}, {"story": "cooking", "time": 67042, "name": "Devin", "rt": 8070, "blocknum": 1, "qtype": "explanation", "response": "he was keeping to himself", "trialnum": 9, "gender": "male", "qnum": 1}, {"story": "cooking", "time": 71554, "name": "Devin", "rt": 4509, "blocknum": 1, "qtype": "probability", "response": 0.63, "trialnum": 10, "gender": "male", "qnum": 2}, {"story": "cooking", "time": 71554, "name": "Devin", "rt": 4509, "blocknum": 1, "qtype": "ungrammatical", "trialnum": 10, "gender": "male", "qnum": 2}, {"story": "cooking", "time": 83050, "name": "Elizabeth", "rt": 11492, "blocknum": 1, "qtype": "probability", "response": 0.68, "trialnum": 11, "gender": "female", "qnum": 3}, {"story": "cooking", "time": 83050, "name": "Elizabeth", "rt": 11492, "blocknum": 1, "qtype": "ungrammatical", "response": true, "trialnum": 11, "gender": "female", "qnum": 3}, {"story": "cooking", "time": 91394, "name": "Madison", "rt": 8340, "blocknum": 1, "qtype": "probability", "response": 0.8, "trialnum": 12, "gender": "female", "qnum": 4}, {"story": "cooking", "time": 91394, "name": "Madison", "rt": 8340, "blocknum": 1, "qtype": "ungrammatical", "response": false, "trialnum": 12, "gender": "female", "qnum": 4}, {"story": "cooking", "time": 99082, "name": "Gabrielle", "rt": 7683, "blocknum": 1, "qtype": "probability", "response": 0.69, "trialnum": 13, "gender": "female", "qnum": 5}, {"story": "cooking", "time": 99082, "name": "Gabrielle", "rt": 7683, "blocknum": 1, "qtype": "ungrammatical", "response": true, "trialnum": 13, "gender": "female", "qnum": 5}, {"story": "fitness", "time": 102354, "name": "Brianna", "rt": 3268, "blocknum": 2, "qtype": "probability", "response": 0.7, "trialnum": 15, "gender": "female", "qnum": 0}, {"story": "fitness", "time": 102354, "name": "Brianna", "rt": 3268, "blocknum": 2, "qtype": "ungrammatical", "trialnum": 15, "gender": "female", "qnum": 0}, {"story": "fitness", "time": 112514, "name": "Jasmine", "rt": 10157, "blocknum": 2, "qtype": "explanation", "response": "she was still eating unhealthy food", "trialnum": 16, "gender": "female", "qnum": 1}, {"story": "fitness", "time": 117194, "name": "Jasmine", "rt": 4674, "blocknum": 2, "qtype": "probability", "response": 0.25, "trialnum": 17, "gender": "female", "qnum": 2}, {"story": "fitness", "time": 117194, "name": "Jasmine", "rt": 4674, "blocknum": 2, "qtype": "ungrammatical", "trialnum": 17, "gender": "female", "qnum": 2}, {"story": "fitness", "time": 122418, "name": "Katie", "rt": 5220, "blocknum": 2, "qtype": "probability", "response": 0.67, "trialnum": 18, "gender": "female", "qnum": 3}, {"story": "fitness", "time": 122418, "name": "Katie", "rt": 5220, "blocknum": 2, "qtype": "ungrammatical", "response": false, "trialnum": 18, "gender": "female", "qnum": 3}, {"story": "fitness", "time": 127258, "name": "Jacqueline", "rt": 4836, "blocknum": 2, "qtype": "probability", "response": 0.8, "trialnum": 19, "gender": "female", "qnum": 4}, {"story": "fitness", "time": 127258, "name": "Jacqueline", "rt": 4836, "blocknum": 2, "qtype": "ungrammatical", "response": false, "trialnum": 19, "gender": "female", "qnum": 4}, {"story": "fitness", "time": 131194, "name": "Alexandra", "rt": 3930, "blocknum": 2, "qtype": "probability", "response": 0.62, "trialnum": 20, "gender": "female", "qnum": 5}, {"story": "fitness", "time": 131194, "name": "Alexandra", "rt": 3930, "blocknum": 2, "qtype": "ungrammatical", "response": false, "trialnum": 20, "gender": "female", "qnum": 5}, {"story": "Japan", "time": 140522, "name": "Melissa", "rt": 9322, "blocknum": 3, "qtype": "probability", "response": 0.67, "trialnum": 22, "gender": "female", "qnum": 0}, {"story": "Japan", "time": 140522, "name": "Melissa", "rt": 9322, "blocknum": 3, "qtype": "ungrammatical", "trialnum": 22, "gender": "female", "qnum": 0}, {"story": "Japan", "time": 162475, "name": "Emily", "rt": 21951, "blocknum": 3, "qtype": "explanation", "response": "she was on a US airline", "trialnum": 23, "gender": "female", "qnum": 1}, {"story": "Japan", "time": 168250, "name": "Emily", "rt": 5765, "blocknum": 3, "qtype": "probability", "response": 0.66, "trialnum": 24, "gender": "female", "qnum": 2}, {"story": "Japan", "time": 168250, "name": "Emily", "rt": 5765, "blocknum": 3, "qtype": "ungrammatical", "trialnum": 24, "gender": "female", "qnum": 2}, {"story": "Japan", "time": 180762, "name": "Brandon", "rt": 12508, "blocknum": 3, "qtype": "probability", "response": 0.68, "trialnum": 25, "gender": "male", "qnum": 3}, {"story": "Japan", "time": 180762, "name": "Brandon", "rt": 12508, "blocknum": 3, "qtype": "ungrammatical", "response": false, "trialnum": 25, "gender": "male", "qnum": 3}, {"story": "Japan", "time": 182714, "name": "Jacob", "rt": 1949, "blocknum": 3, "qtype": "probability", "response": 0.78, "trialnum": 26, "gender": "male", "qnum": 4}, {"story": "Japan", "time": 182714, "name": "Jacob", "rt": 1949, "blocknum": 3, "qtype": "ungrammatical", "response": false, "trialnum": 26, "gender": "male", "qnum": 4}, {"story": "Japan", "time": 184394, "name": "Alyssa", "rt": 1677, "blocknum": 3, "qtype": "probability", "response": 0.79, "trialnum": 27, "gender": "female", "qnum": 5}, {"story": "Japan", "time": 184394, "name": "Alyssa", "rt": 1677, "blocknum": 3, "qtype": "ungrammatical", "response": false, "trialnum": 27, "gender": "female", "qnum": 5}, {"story": "beach", "time": 188786, "name": "Travis", "rt": 4388, "blocknum": 4, "qtype": "probability", "response": 0.8, "trialnum": 29, "gender": "male", "qnum": 0}, {"story": "beach", "time": 188786, "name": "Travis", "rt": 4388, "blocknum": 4, "qtype": "ungrammatical", "trialnum": 29, "gender": "male", "qnum": 0}, {"story": "beach", "time": 198739, "name": "Chelsea", "rt": 9951, "blocknum": 4, "qtype": "explanation", "response": "it wsan't a sunny day", "trialnum": 30, "gender": "female", "qnum": 1}, {"story": "beach", "time": 201042, "name": "Chelsea", "rt": 2300, "blocknum": 4, "qtype": "probability", "response": 0.15, "trialnum": 31, "gender": "female", "qnum": 2}, {"story": "beach", "time": 201042, "name": "Chelsea", "rt": 2300, "blocknum": 4, "qtype": "ungrammatical", "trialnum": 31, "gender": "female", "qnum": 2}, {"story": "beach", "time": 207770, "name": "Gabriel", "rt": 6725, "blocknum": 4, "qtype": "probability", "response": 0.81, "trialnum": 32, "gender": "male", "qnum": 3}, {"story": "beach", "time": 207770, "name": "Gabriel", "rt": 6725, "blocknum": 4, "qtype": "ungrammatical", "response": false, "trialnum": 32, "gender": "male", "qnum": 3}, {"story": "beach", "time": 209818, "name": "Julia", "rt": 2045, "blocknum": 4, "qtype": "probability", "response": 0.88, "trialnum": 33, "gender": "female", "qnum": 4}, {"story": "beach", "time": 209818, "name": "Julia", "rt": 2045, "blocknum": 4, "qtype": "ungrammatical", "response": false, "trialnum": 33, "gender": "female", "qnum": 4}, {"story": "beach", "time": 212330, "name": "Erica", "rt": 2508, "blocknum": 4, "qtype": "probability", "response": 0.84, "trialnum": 34, "gender": "female", "qnum": 5}, {"story": "beach", "time": 212330, "name": "Erica", "rt": 2508, "blocknum": 4, "qtype": "ungrammatical", "response": false, "trialnum": 34, "gender": "female", "qnum": 5}, {"story": "painting", "time": 220979, "name": "Savannah", "rt": 8645, "blocknum": 5, "qtype": "probability", "response": 0.76, "trialnum": 36, "gender": "female", "qnum": 0}, {"story": "painting", "time": 220979, "name": "Savannah", "rt": 8645, "blocknum": 5, "qtype": "ungrammatical", "trialnum": 36, "gender": "female", "qnum": 0}, {"story": "painting", "time": 230892, "name": "Cameron", "rt": 9910, "blocknum": 5, "qtype": "explanation", "response": "he was careful", "trialnum": 37, "gender": "male", "qnum": 1}, {"story": "painting", "time": 233787, "name": "Cameron", "rt": 2886, "blocknum": 5, "qtype": "probability", "response": 0.77, "trialnum": 38, "gender": "male", "qnum": 2}, {"story": "painting", "time": 233787, "name": "Cameron", "rt": 2886, "blocknum": 5, "qtype": "ungrammatical", "trialnum": 38, "gender": "male", "qnum": 2}, {"story": "painting", "time": 241515, "name": "Haley", "rt": 7723, "blocknum": 5, "qtype": "probability", "response": 0.6, "trialnum": 39, "gender": "female", "qnum": 3}, {"story": "painting", "time": 241515, "name": "Haley", "rt": 7723, "blocknum": 5, "qtype": "ungrammatical", "response": false, "trialnum": 39, "gender": "female", "qnum": 3}, {"story": "painting", "time": 246339, "name": "Steven", "rt": 4820, "blocknum": 5, "qtype": "probability", "response": 0.56, "trialnum": 40, "gender": "male", "qnum": 4}, {"story": "painting", "time": 246339, "name": "Steven", "rt": 4820, "blocknum": 5, "qtype": "ungrammatical", "response": false, "trialnum": 40, "gender": "male", "qnum": 4}, {"story": "painting", "time": 249083, "name": "Ashley", "rt": 2740, "blocknum": 5, "qtype": "probability", "response": 0.85, "trialnum": 41, "gender": "female", "qnum": 5}, {"story": "painting", "time": 249083, "name": "Ashley", "rt": 2740, "blocknum": 5, "qtype": "ungrammatical", "response": false, "trialnum": 41, "gender": "female", "qnum": 5}, {"story": "insomnia", "time": 252612, "name": "Aaron", "rt": 3525, "blocknum": 6, "qtype": "probability", "response": 0.22, "trialnum": 43, "gender": "male", "qnum": 0}, {"story": "insomnia", "time": 252612, "name": "Aaron", "rt": 3525, "blocknum": 6, "qtype": "ungrammatical", "trialnum": 43, "gender": "male", "qnum": 0}, {"story": "insomnia", "time": 266299, "name": "Eric", "rt": 13685, "blocknum": 6, "qtype": "explanation", "response": "he has discipline", "trialnum": 44, "gender": "male", "qnum": 1}, {"story": "insomnia", "time": 272771, "name": "Eric", "rt": 6468, "blocknum": 6, "qtype": "probability", "response": 0.29, "trialnum": 45, "gender": "male", "qnum": 2}, {"story": "insomnia", "time": 272771, "name": "Eric", "rt": 6468, "blocknum": 6, "qtype": "ungrammatical", "trialnum": 45, "gender": "male", "qnum": 2}, {"story": "insomnia", "time": 276332, "name": "Jennifer", "rt": 3556, "blocknum": 6, "qtype": "probability", "response": 0.66, "trialnum": 46, "gender": "female", "qnum": 3}, {"story": "insomnia", "time": 276332, "name": "Jennifer", "rt": 3556, "blocknum": 6, "qtype": "ungrammatical", "response": false, "trialnum": 46, "gender": "female", "qnum": 3}, {"story": "insomnia", "time": 285323, "name": "Miranda", "rt": 8986, "blocknum": 6, "qtype": "probability", "response": 0.92, "trialnum": 47, "gender": "female", "qnum": 4}, {"story": "insomnia", "time": 285323, "name": "Miranda", "rt": 8986, "blocknum": 6, "qtype": "ungrammatical", "response": false, "trialnum": 47, "gender": "female", "qnum": 4}, {"story": "insomnia", "time": 290650, "name": "Juan", "rt": 5325, "blocknum": 6, "qtype": "probability", "response": 0.21, "trialnum": 48, "gender": "male", "qnum": 5}, {"story": "insomnia", "time": 290650, "name": "Juan", "rt": 5325, "blocknum": 6, "qtype": "ungrammatical", "response": false, "trialnum": 48, "gender": "male", "qnum": 5}, {"story": "reading", "time": 296907, "name": "Adam", "rt": 6253, "blocknum": 7, "qtype": "probability", "response": 0.83, "trialnum": 50, "gender": "male", "qnum": 0}, {"story": "reading", "time": 296907, "name": "Adam", "rt": 6253, "blocknum": 7, "qtype": "ungrammatical", "trialnum": 50, "gender": "male", "qnum": 0}, {"story": "reading", "time": 314578, "name": "Hannah", "rt": 17669, "blocknum": 7, "qtype": "explanation", "response": "she was reading easy books", "trialnum": 51, "gender": "female", "qnum": 1}, {"story": "reading", "time": 316851, "name": "Hannah", "rt": 2268, "blocknum": 7, "qtype": "probability", "response": 0.19, "trialnum": 52, "gender": "female", "qnum": 2}, {"story": "reading", "time": 316851, "name": "Hannah", "rt": 2268, "blocknum": 7, "qtype": "ungrammatical", "trialnum": 52, "gender": "female", "qnum": 2}, {"story": "reading", "time": 323779, "name": "Maria", "rt": 6925, "blocknum": 7, "qtype": "probability", "response": 0.65, "trialnum": 53, "gender": "female", "qnum": 3}, {"story": "reading", "time": 323779, "name": "Maria", "rt": 6925, "blocknum": 7, "qtype": "ungrammatical", "response": false, "trialnum": 53, "gender": "female", "qnum": 3}, {"story": "reading", "time": 328202, "name": "Jeremy", "rt": 4420, "blocknum": 7, "qtype": "probability", "response": 0.89, "trialnum": 54, "gender": "male", "qnum": 4}, {"story": "reading", "time": 328202, "name": "Jeremy", "rt": 4420, "blocknum": 7, "qtype": "ungrammatical", "response": false, "trialnum": 54, "gender": "male", "qnum": 4}, {"story": "reading", "time": 330771, "name": "Heather", "rt": 2566, "blocknum": 7, "qtype": "probability", "response": 0.17, "trialnum": 55, "gender": "female", "qnum": 5}, {"story": "reading", "time": 330771, "name": "Heather", "rt": 2566, "blocknum": 7, "qtype": "ungrammatical", "response": false, "trialnum": 55, "gender": "female", "qnum": 5}, {"story": "coffee", "time": 333555, "name": "Corey", "rt": 2781, "blocknum": 8, "qtype": "probability", "response": 0.74, "trialnum": 57, "gender": "male", "qnum": 0}, {"story": "coffee", "time": 333555, "name": "Corey", "rt": 2781, "blocknum": 8, "qtype": "ungrammatical", "trialnum": 57, "gender": "male", "qnum": 0}, {"story": "coffee", "time": 338954, "name": "Katherine", "rt": 5396, "blocknum": 8, "qtype": "explanation", "response": "she drank decaf", "trialnum": 58, "gender": "female", "qnum": 1}, {"story": "coffee", "time": 342850, "name": "Katherine", "rt": 3889, "blocknum": 8, "qtype": "probability", "response": 0.2, "trialnum": 59, "gender": "female", "qnum": 2}, {"story": "coffee", "time": 342850, "name": "Katherine", "rt": 3889, "blocknum": 8, "qtype": "ungrammatical", "trialnum": 59, "gender": "female", "qnum": 2}, {"story": "coffee", "time": 350562, "name": "Rebecca", "rt": 7708, "blocknum": 8, "qtype": "probability", "response": 0.76, "trialnum": 60, "gender": "female", "qnum": 3}, {"story": "coffee", "time": 350562, "name": "Rebecca", "rt": 7708, "blocknum": 8, "qtype": "ungrammatical", "response": false, "trialnum": 60, "gender": "female", "qnum": 3}, {"story": "coffee", "time": 357834, "name": "Robert", "rt": 7268, "blocknum": 8, "qtype": "probability", "response": 0.89, "trialnum": 61, "gender": "male", "qnum": 4}, {"story": "coffee", "time": 357834, "name": "Robert", "rt": 7268, "blocknum": 8, "qtype": "ungrammatical", "response": false, "trialnum": 61, "gender": "male", "qnum": 4}, {"story": "coffee", "time": 362090, "name": "Sarah", "rt": 4253, "blocknum": 8, "qtype": "probability", "response": 0.14, "trialnum": 62, "gender": "female", "qnum": 5}, {"story": "coffee", "time": 362090, "name": "Sarah", "rt": 4253, "blocknum": 8, "qtype": "ungrammatical", "response": false, "trialnum": 62, "gender": "female", "qnum": 5}], "events": [{"type": "position", "time": 70, "x": 0, "y": 0}, {"type": "position", "time": 109, "x": 0, "y": 0}, {"type": "position", "time": 159, "x": null, "y": 0.08833333333333333}, {"type": "position", "time": 209, "x": null, "y": 0.21833333333333332}, {"type": "position", "time": 259, "x": null, "y": 0.305}, {"type": "position", "time": 309, "x": null, "y": 0.33666666666666667}, {"type": "position", "time": 359, "x": null, "y": 0.37}, {"type": "position", "time": 409, "x": null, "y": 0.435}, {"type": "position", "time": 459, "x": null, "y": 0.5016666666666667}, {"type": "position", "time": 509, "x": null, "y": 0.5133333333333333}, {"type": "position", "time": 559, "x": null, "y": 0.5133333333333333}, {"type": "position", "time": 609, "x": null, "y": 0.5083333333333333}, {"type": "position", "time": 659, "x": null, "y": 0.49333333333333335}, {"type": "position", "time": 709, "x": null, "y": 0.49333333333333335}, {"type": "position", "time": 759, "x": null, "y": 0.4866666666666667}, {"type": "position", "time": 809, "x": null, "y": 0.485}, {"type": "position", "time": 859, "x": null, "y": 0.485}, {"type": "position", "time": 909, "x": null, "y": 0.485}, {"type": "position", "time": 959, "x": null, "y": 0.485}, {"type": "position", "time": 1009, "x": null, "y": 0.485}, {"type": "click", "time": 1037, "x": null, "y": 0.485}, {"type": "position", "time": 1059, "x": null, "y": 0.485}, {"type": "position", "time": 1109, "x": null, "y": 0.485}, {"type": "position", "time": 1159, "x": null, "y": 0.485}, {"type": "position", "time": 1209, "x": null, "y": 0.47833333333333333}, {"type": "position", "time": 1259, "x": null, "y": 0.47833333333333333}, {"type": "position", "time": 1309, "x": null, "y": 0.47333333333333333}, {"type": "position", "time": 1359, "x": null, "y": 0.46}, {"type": "position", "time": 1409, "x": null, "y": 0.4266666666666667}, {"type": "position", "time": 1459, "x": null, "y": 0.4}, {"type": "position", "time": 1509, "x": null, "y": 0.39166666666666666}, {"type": "position", "time": 1559, "x": null, "y": 0.39166666666666666}, {"type": "position", "time": 1609, "x": null, "y": 0.39166666666666666}, {"type": "position", "time": 1659, "x": null, "y": 0.39166666666666666}, {"type": "position", "time": 1709, "x": null, "y": 0.39166666666666666}, {"type": "position", "time": 1765, "x": null, "y": 0.42}, {"type": "position", "time": 1809, "x": null, "y": 0.47333333333333333}, {"type": "position", "time": 1859, "x": null, "y": 0.5066666666666667}, {"type": "position", "time": 1909, "x": null, "y": 0.51}, {"type": "position", "time": 1959, "x": null, "y": 0.51}, {"type": "position", "time": 2012, "x": null, "y": 0.5183333333333333}, {"type": "position", "time": 2062, "x": null, "y": 0.5516666666666666}, {"type": "position", "time": 2109, "x": null, "y": 0.5766666666666667}, {"type": "position", "time": 2159, "x": null, "y": 0.5883333333333334}, {"type": "position", "time": 2209, "x": null, "y": 0.6016666666666667}, {"type": "position", "time": 2259, "x": null, "y": 0.6016666666666667}, {"type": "position", "time": 2309, "x": null, "y": 0.5716666666666667}, {"type": "position", "time": 2359, "x": null, "y": 0.5716666666666667}, {"type": "position", "time": 2409, "x": null, "y": 0.5716666666666667}, {"type": "position", "time": 2459, "x": null, "y": 0.5716666666666667}, {"type": "position", "time": 2509, "x": null, "y": 0.5716666666666667}, {"type": "position", "time": 2559, "x": null, "y": 0.5733333333333334}, {"type": "position", "time": 2609, "x": null, "y": 0.5783333333333334}, {"type": "position", "time": 2659, "x": null, "y": 0.5783333333333334}, {"type": "position", "time": 2709, "x": null, "y": 0.5783333333333334}, {"type": "position", "time": 2759, "x": null, "y": 0.5783333333333334}, {"type": "position", "time": 2809, "x": null, "y": 0.5783333333333334}, {"type": "position", "time": 2859, "x": null, "y": 0.5783333333333334}, {"type": "position", "time": 2909, "x": null, "y": 0.5783333333333334}, {"type": "position", "time": 2959, "x": null, "y": 0.5783333333333334}, {"type": "position", "time": 3009, "x": null, "y": 0.5966666666666667}, {"type": "position", "time": 3059, "x": null, "y": 0.6016666666666667}, {"type": "position", "time": 3109, "x": null, "y": 0.6083333333333333}, {"type": "position", "time": 3159, "x": null, "y": 0.6083333333333333}, {"type": "position", "time": 3209, "x": null, "y": 0.6083333333333333}, {"type": "position", "time": 3259, "x": null, "y": 0.6083333333333333}, {"type": "position", "time": 3309, "x": null, "y": 0.6083333333333333}, {"type": "position", "time": 3359, "x": null, "y": 0.605}, {"type": "position", "time": 3409, "x": null, "y": 0.605}, {"type": "position", "time": 3459, "x": null, "y": 0.6033333333333334}, {"type": "position", "time": 3509, "x": null, "y": 0.6033333333333334}, {"type": "position", "time": 3559, "x": null, "y": 0.6033333333333334}, {"type": "position", "time": 3609, "x": null, "y": 0.6033333333333334}, {"type": "position", "time": 3659, "x": null, "y": 0.6033333333333334}, {"type": "position", "time": 3709, "x": null, "y": 0.6033333333333334}, {"type": "position", "time": 3759, "x": null, "y": 0.6033333333333334}, {"type": "position", "time": 3809, "x": null, "y": 0.6033333333333334}, {"type": "slider", "time": 3877, "value": 0.49}, {"type": "position", "time": 3883, "x": null, "y": 0.6033333333333334}, {"type": "position", "time": 3909, "x": null, "y": 0.6033333333333334}, {"type": "position", "time": 3959, "x": null, "y": 0.6033333333333334}, {"type": "position", "time": 4009, "x": null, "y": 0.6033333333333334}, {"type": "position", "time": 4059, "x": null, "y": 0.6033333333333334}, {"type": "click", "time": 4069, "x": null, "y": 0.6033333333333334}, {"type": "position", "time": 4109, "x": null, "y": 0.5966666666666667}, {"type": "position", "time": 4159, "x": null, "y": 0.5916666666666667}, {"type": "position", "time": 4209, "x": null, "y": 0.5883333333333334}, {"type": "position", "time": 4259, "x": null, "y": 0.5883333333333334}, {"type": "position", "time": 4309, "x": null, "y": 0.5883333333333334}, {"type": "position", "time": 4359, "x": null, "y": 0.5883333333333334}, {"type": "position", "time": 4409, "x": null, "y": 0.5883333333333334}, {"type": "slider", "time": 4446, "value": 0.48}, {"type": "position", "time": 4461, "x": null, "y": 0.5883333333333334}, {"type": "slider", "time": 4476, "value": 0.47}, {"type": "slider", "time": 4495, "value": 0.44}, {"type": "slider", "time": 4512, "value": 0.42}, {"type": "position", "time": 4513, "x": null, "y": 0.5933333333333334}, {"type": "slider", "time": 4527, "value": 0.4}, {"type": "slider", "time": 4544, "value": 0.38}, {"type": "slider", "time": 4561, "value": 0.36}, {"type": "position", "time": 4562, "x": null, "y": 0.5933333333333334}, {"type": "slider", "time": 4578, "value": 0.35}, {"type": "slider", "time": 4595, "value": 0.34}, {"type": "slider", "time": 4611, "value": 0.33}, {"type": "position", "time": 4611, "x": null, "y": 0.5933333333333334}, {"type": "position", "time": 4659, "x": null, "y": 0.5933333333333334}, {"type": "position", "time": 4709, "x": null, "y": 0.5933333333333334}, {"type": "position", "time": 4759, "x": null, "y": 0.5933333333333334}, {"type": "position", "time": 4809, "x": null, "y": 0.5933333333333334}, {"type": "position", "time": 4859, "x": null, "y": 0.5933333333333334}, {"type": "position", "time": 4909, "x": null, "y": 0.5933333333333334}, {"type": "slider", "time": 4965, "value": 0.32}, {"type": "position", "time": 4969, "x": null, "y": 0.5933333333333334}, {"type": "position", "time": 5009, "x": null, "y": 0.5933333333333334}, {"type": "position", "time": 5059, "x": null, "y": 0.5933333333333334}, {"type": "position", "time": 5109, "x": null, "y": 0.5933333333333334}, {"type": "position", "time": 5159, "x": null, "y": 0.5933333333333334}, {"type": "position", "time": 5209, "x": null, "y": 0.5966666666666667}, {"type": "position", "time": 5259, "x": null, "y": 0.6366666666666667}, {"type": "position", "time": 5309, "x": null, "y": 0.6733333333333333}, {"type": "position", "time": 5359, "x": null, "y": 0.69}, {"type": "position", "time": 5409, "x": null, "y": 0.6933333333333334}, {"type": "position", "time": 5459, "x": null, "y": 0.695}, {"type": "position", "time": 5509, "x": null, "y": 0.695}, {"type": "position", "time": 5559, "x": null, "y": 0.695}, {"type": "position", "time": 5609, "x": null, "y": 0.695}, {"type": "position", "time": 5659, "x": null, "y": 0.6933333333333334}, {"type": "position", "time": 5709, "x": null, "y": 0.6933333333333334}, {"type": "position", "time": 5759, "x": null, "y": 0.6933333333333334}, {"type": "position", "time": 5810, "x": null, "y": 0.6883333333333334}, {"type": "position", "time": 5859, "x": null, "y": 0.68}, {"type": "position", "time": 5909, "x": null, "y": 0.645}, {"type": "position", "time": 5959, "x": null, "y": 0.6216666666666667}, {"type": "position", "time": 6009, "x": null, "y": 0.6216666666666667}, {"type": "position", "time": 6059, "x": null, "y": 0.6216666666666667}, {"type": "position", "time": 6115, "x": null, "y": 0.62}, {"type": "position", "time": 6159, "x": null, "y": 0.6183333333333333}, {"type": "position", "time": 6209, "x": null, "y": 0.6166666666666667}, {"type": "position", "time": 6262, "x": null, "y": 0.6133333333333333}, {"type": "position", "time": 6309, "x": null, "y": 0.6133333333333333}, {"type": "position", "time": 6359, "x": null, "y": 0.61}, {"type": "position", "time": 6409, "x": null, "y": 0.61}, {"type": "position", "time": 6459, "x": null, "y": 0.61}, {"type": "position", "time": 6509, "x": null, "y": 0.61}, {"type": "position", "time": 6559, "x": null, "y": 0.6066666666666667}, {"type": "position", "time": 6610, "x": null, "y": 0.6}, {"type": "position", "time": 6659, "x": null, "y": 0.5983333333333334}, {"type": "position", "time": 6709, "x": null, "y": 0.5983333333333334}, {"type": "position", "time": 6759, "x": null, "y": 0.5983333333333334}, {"type": "slider", "time": 6765, "value": 0.31}, {"type": "slider", "time": 6806, "value": 0.3}, {"type": "position", "time": 6809, "x": null, "y": 0.5983333333333334}, {"type": "slider", "time": 6841, "value": 0.29}, {"type": "position", "time": 6859, "x": null, "y": 0.6}, {"type": "slider", "time": 6874, "value": 0.28}, {"type": "position", "time": 6909, "x": null, "y": 0.6}, {"type": "position", "time": 6959, "x": null, "y": 0.6}, {"type": "slider", "time": 6964, "value": 0.27}, {"type": "position", "time": 7009, "x": null, "y": 0.6016666666666667}, {"type": "position", "time": 7059, "x": null, "y": 0.6016666666666667}, {"type": "position", "time": 7109, "x": null, "y": 0.6016666666666667}, {"type": "position", "time": 7159, "x": null, "y": 0.6016666666666667}, {"type": "position", "time": 7209, "x": null, "y": 0.6033333333333334}, {"type": "position", "time": 7259, "x": null, "y": 0.6033333333333334}, {"type": "position", "time": 7309, "x": null, "y": 0.6033333333333334}, {"type": "position", "time": 7359, "x": null, "y": 0.6033333333333334}, {"type": "position", "time": 7409, "x": null, "y": 0.6033333333333334}, {"type": "position", "time": 7459, "x": null, "y": 0.6033333333333334}, {"type": "position", "time": 7509, "x": null, "y": 0.6033333333333334}, {"type": "position", "time": 7559, "x": null, "y": 0.6033333333333334}, {"type": "position", "time": 7609, "x": null, "y": 0.6033333333333334}, {"type": "position", "time": 7659, "x": null, "y": 0.6033333333333334}, {"type": "position", "time": 7709, "x": null, "y": 0.6033333333333334}, {"type": "slider", "time": 7743, "value": 0.28}, {"type": "position", "time": 7759, "x": null, "y": 0.6033333333333334}, {"type": "position", "time": 7809, "x": null, "y": 0.6033333333333334}, {"type": "position", "time": 7859, "x": null, "y": 0.6033333333333334}, {"type": "position", "time": 7909, "x": null, "y": 0.6033333333333334}, {"type": "position", "time": 7959, "x": null, "y": 0.6033333333333334}, {"type": "position", "time": 8009, "x": null, "y": 0.6066666666666667}, {"type": "position", "time": 8059, "x": null, "y": 0.635}, {"type": "position", "time": 8109, "x": null, "y": 0.6383333333333333}, {"type": "position", "time": 8159, "x": null, "y": 0.6383333333333333}, {"type": "position", "time": 8209, "x": null, "y": 0.645}, {"type": "position", "time": 8260, "x": null, "y": 0.6533333333333333}, {"type": "position", "time": 8309, "x": null, "y": 0.6666666666666666}, {"type": "position", "time": 8359, "x": null, "y": 0.6783333333333333}, {"type": "position", "time": 8409, "x": null, "y": 0.6833333333333333}, {"type": "position", "time": 8459, "x": null, "y": 0.685}, {"type": "position", "time": 8509, "x": null, "y": 0.685}, {"type": "position", "time": 8559, "x": null, "y": 0.685}, {"type": "position", "time": 8611, "x": null, "y": 0.6816666666666666}, {"type": "position", "time": 8659, "x": null, "y": 0.6666666666666666}, {"type": "position", "time": 8709, "x": null, "y": 0.6416666666666667}, {"type": "position", "time": 8759, "x": null, "y": 0.625}, {"type": "position", "time": 8809, "x": null, "y": 0.6216666666666667}, {"type": "position", "time": 8859, "x": null, "y": 0.6216666666666667}, {"type": "position", "time": 8909, "x": null, "y": 0.6216666666666667}, {"type": "position", "time": 8959, "x": null, "y": 0.6216666666666667}, {"type": "click", "time": 8994, "x": null, "y": 0.6216666666666667}, {"type": "position", "time": 9009, "x": null, "y": 0.6216666666666667}, {"type": "position", "time": 9059, "x": null, "y": 0.6216666666666667}, {"type": "position", "time": 9109, "x": null, "y": 0.6216666666666667}, {"type": "position", "time": 9159, "x": null, "y": 0.6216666666666667}, {"type": "position", "time": 9209, "x": null, "y": 0.6216666666666667}, {"type": "position", "time": 9259, "x": null, "y": 0.6216666666666667}, {"type": "click", "time": 9266, "x": null, "y": 0.6216666666666667}, {"type": "position", "time": 9309, "x": null, "y": 0.6183333333333333}, {"type": "position", "time": 9359, "x": null, "y": 0.615}, {"type": "position", "time": 9409, "x": null, "y": 0.615}, {"type": "position", "time": 9459, "x": null, "y": 0.615}, {"type": "click", "time": 9490, "x": null, "y": 0.615}, {"type": "position", "time": 9509, "x": null, "y": 0.615}, {"type": "position", "time": 9559, "x": null, "y": 0.6116666666666667}, {"type": "position", "time": 9609, "x": null, "y": 0.61}, {"type": "position", "time": 9659, "x": null, "y": 0.6066666666666667}, {"type": "position", "time": 9709, "x": null, "y": 0.6066666666666667}, {"type": "position", "time": 9759, "x": null, "y": 0.6066666666666667}, {"type": "click", "time": 9802, "x": null, "y": 0.605}, {"type": "position", "time": 9809, "x": null, "y": 0.605}, {"type": "position", "time": 9859, "x": null, "y": 0.6}, {"type": "position", "time": 9909, "x": null, "y": 0.5966666666666667}, {"type": "position", "time": 9959, "x": null, "y": 0.595}, {"type": "slider", "time": 9980, "value": 0.54}, {"type": "position", "time": 10009, "x": null, "y": 0.595}, {"type": "position", "time": 10059, "x": null, "y": 0.595}, {"type": "click", "time": 10084, "x": null, "y": 0.595}, {"type": "position", "time": 10109, "x": null, "y": 0.595}, {"type": "position", "time": 10159, "x": null, "y": 0.595}, {"type": "position", "time": 10209, "x": null, "y": 0.595}, {"type": "position", "time": 10261, "x": null, "y": 0.5966666666666667}, {"type": "position", "time": 10309, "x": null, "y": 0.6066666666666667}, {"type": "position", "time": 10359, "x": null, "y": 0.62}, {"type": "position", "time": 10409, "x": null, "y": 0.6283333333333333}, {"type": "position", "time": 10459, "x": null, "y": 0.6466666666666666}, {"type": "position", "time": 10509, "x": null, "y": 0.6816666666666666}, {"type": "position", "time": 10559, "x": null, "y": 0.6916666666666667}, {"type": "position", "time": 10609, "x": null, "y": 0.6916666666666667}, {"type": "position", "time": 10659, "x": null, "y": 0.6916666666666667}, {"type": "position", "time": 10709, "x": null, "y": 0.6916666666666667}, {"type": "click", "time": 10735, "x": null, "y": 0.6916666666666667}, {"type": "position", "time": 10759, "x": null, "y": 0.6916666666666667}, {"type": "position", "time": 10809, "x": null, "y": 0.6883333333333334}, {"type": "position", "time": 10859, "x": null, "y": 0.68}, {"type": "position", "time": 10909, "x": null, "y": 0.6683333333333333}, {"type": "position", "time": 10959, "x": null, "y": 0.6283333333333333}, {"type": "position", "time": 11009, "x": null, "y": 0.5333333333333333}, {"type": "position", "time": 11059, "x": null, "y": 0.45666666666666667}, {"type": "position", "time": 11109, "x": null, "y": 0.3883333333333333}, {"type": "position", "time": 11159, "x": null, "y": 0.35333333333333333}, {"type": "position", "time": 11209, "x": null, "y": 0.3466666666666667}, {"type": "position", "time": 11260, "x": null, "y": 0.3466666666666667}, {"type": "position", "time": 11309, "x": null, "y": 0.36}, {"type": "position", "time": 11359, "x": null, "y": 0.4266666666666667}, {"type": "position", "time": 11409, "x": null, "y": 0.46166666666666667}, {"type": "position", "time": 11459, "x": null, "y": 0.485}, {"type": "position", "time": 11509, "x": null, "y": 0.5183333333333333}, {"type": "position", "time": 11559, "x": null, "y": 0.535}, {"type": "position", "time": 11609, "x": null, "y": 0.5483333333333333}, {"type": "position", "time": 11659, "x": null, "y": 0.5483333333333333}, {"type": "position", "time": 11709, "x": null, "y": 0.5516666666666666}, {"type": "position", "time": 11759, "x": null, "y": 0.5516666666666666}, {"type": "position", "time": 11809, "x": null, "y": 0.55}, {"type": "position", "time": 11859, "x": null, "y": 0.55}, {"type": "position", "time": 11909, "x": null, "y": 0.55}, {"type": "position", "time": 11959, "x": null, "y": 0.55}, {"type": "position", "time": 12015, "x": null, "y": 0.55}, {"type": "position", "time": 12059, "x": null, "y": 0.55}, {"type": "position", "time": 12109, "x": null, "y": 0.55}, {"type": "position", "time": 12159, "x": null, "y": 0.55}, {"type": "click", "time": 12194, "x": null, "y": 0.55}, {"type": "position", "time": 12209, "x": null, "y": 0.55}, {"type": "position", "time": 12259, "x": null, "y": 0.55}, {"type": "position", "time": 12309, "x": null, "y": 0.55}, {"type": "position", "time": 12359, "x": null, "y": 0.55}, {"type": "position", "time": 12409, "x": null, "y": 0.55}, {"type": "position", "time": 12459, "x": null, "y": 0.55}, {"type": "position", "time": 12509, "x": null, "y": 0.55}, {"type": "position", "time": 12559, "x": null, "y": 0.55}, {"type": "position", "time": 12609, "x": null, "y": 0.55}, {"type": "position", "time": 12662, "x": null, "y": 0.5433333333333333}, {"type": "position", "time": 12709, "x": null, "y": 0.5416666666666666}, {"type": "position", "time": 12759, "x": null, "y": 0.5416666666666666}, {"type": "position", "time": 12809, "x": null, "y": 0.5383333333333333}, {"type": "position", "time": 12859, "x": null, "y": 0.5383333333333333}, {"type": "position", "time": 12909, "x": null, "y": 0.535}, {"type": "position", "time": 12959, "x": null, "y": 0.5333333333333333}, {"type": "position", "time": 13009, "x": null, "y": 0.5283333333333333}, {"type": "position", "time": 13059, "x": null, "y": 0.525}, {"type": "position", "time": 13109, "x": null, "y": 0.5216666666666666}, {"type": "position", "time": 13159, "x": null, "y": 0.5216666666666666}, {"type": "position", "time": 13209, "x": null, "y": 0.5216666666666666}, {"type": "position", "time": 13259, "x": null, "y": 0.5133333333333333}, {"type": "position", "time": 13309, "x": null, "y": 0.5133333333333333}, {"type": "position", "time": 13359, "x": null, "y": 0.5133333333333333}, {"type": "position", "time": 13409, "x": null, "y": 0.5133333333333333}, {"type": "position", "time": 13459, "x": null, "y": 0.5133333333333333}, {"type": "position", "time": 13509, "x": null, "y": 0.5133333333333333}, {"type": "position", "time": 13559, "x": null, "y": 0.5133333333333333}, {"type": "position", "time": 13609, "x": null, "y": 0.5133333333333333}, {"type": "position", "time": 13659, "x": null, "y": 0.5133333333333333}, {"type": "position", "time": 13709, "x": null, "y": 0.5133333333333333}, {"type": "position", "time": 13759, "x": null, "y": 0.5133333333333333}, {"type": "position", "time": 13809, "x": null, "y": 0.5133333333333333}, {"type": "position", "time": 13859, "x": null, "y": 0.5133333333333333}, {"type": "position", "time": 13909, "x": null, "y": 0.4766666666666667}, {"type": "position", "time": 13959, "x": null, "y": 0.3333333333333333}, {"type": "position", "time": 14009, "x": null, "y": 0.3333333333333333}, {"type": "position", "time": 14059, "x": null, "y": 0.3333333333333333}, {"type": "position", "time": 14109, "x": null, "y": 0.3333333333333333}, {"type": "position", "time": 14159, "x": null, "y": 0.3333333333333333}, {"type": "position", "time": 14209, "x": null, "y": 0.3333333333333333}, {"type": "position", "time": 14259, "x": null, "y": 0.3333333333333333}, {"type": "position", "time": 14309, "x": null, "y": 0.3333333333333333}, {"type": "position", "time": 14359, "x": null, "y": 0.3333333333333333}, {"type": "position", "time": 14409, "x": null, "y": 0.3333333333333333}, {"type": "position", "time": 14459, "x": null, "y": 0.3333333333333333}, {"type": "position", "time": 14509, "x": null, "y": 0.3333333333333333}, {"type": "position", "time": 14559, "x": null, "y": 0.3333333333333333}, {"type": "position", "time": 14609, "x": null, "y": 0.3333333333333333}, {"type": "position", "time": 14659, "x": null, "y": 0.3333333333333333}, {"type": "position", "time": 14709, "x": null, "y": 0.3333333333333333}, {"type": "position", "time": 14759, "x": null, "y": 0.3333333333333333}, {"type": "position", "time": 14809, "x": null, "y": 0.3333333333333333}, {"type": "position", "time": 14859, "x": null, "y": 0.3333333333333333}, {"type": "position", "time": 14909, "x": null, "y": 0.3333333333333333}, {"type": "position", "time": 14959, "x": null, "y": 0.3333333333333333}, {"type": "position", "time": 15009, "x": null, "y": 0.3333333333333333}, {"type": "position", "time": 15059, "x": null, "y": 0.3333333333333333}, {"type": "position", "time": 15109, "x": null, "y": 0.3333333333333333}, {"type": "position", "time": 15159, "x": null, "y": 0.3333333333333333}, {"type": "position", "time": 15209, "x": null, "y": 0.3333333333333333}, {"type": "position", "time": 15259, "x": null, "y": 0.3333333333333333}, {"type": "position", "time": 15309, "x": null, "y": 0.3333333333333333}, {"type": "position", "time": 15359, "x": null, "y": 0.3333333333333333}, {"type": "position", "time": 15409, "x": null, "y": 0.3333333333333333}, {"type": "position", "time": 15460, "x": null, "y": 0.3333333333333333}, {"type": "position", "time": 15509, "x": null, "y": 0.3333333333333333}, {"type": "position", "time": 15559, "x": null, "y": 0.3333333333333333}, {"type": "position", "time": 15609, "x": null, "y": 0.3333333333333333}, {"type": "position", "time": 15659, "x": null, "y": 0.3333333333333333}, {"type": "position", "time": 15709, "x": null, "y": 0.3333333333333333}, {"type": "position", "time": 15759, "x": null, "y": 0.3333333333333333}, {"type": "position", "time": 15809, "x": null, "y": 0.3333333333333333}, {"type": "position", "time": 15859, "x": null, "y": 0.3333333333333333}, {"type": "position", "time": 15909, "x": null, "y": 0.3333333333333333}, {"type": "position", "time": 15959, "x": null, "y": 0.3333333333333333}, {"type": "position", "time": 16009, "x": null, "y": 0.3333333333333333}, {"type": "position", "time": 16059, "x": null, "y": 0.3333333333333333}, {"type": "position", "time": 16109, "x": null, "y": 0.3333333333333333}, {"type": "position", "time": 16159, "x": null, "y": 0.3333333333333333}, {"type": "position", "time": 16211, "x": null, "y": 0.3333333333333333}, {"type": "position", "time": 16259, "x": null, "y": 0.3333333333333333}, {"type": "position", "time": 16309, "x": null, "y": 0.3333333333333333}, {"type": "position", "time": 16359, "x": null, "y": 0.3333333333333333}, {"type": "position", "time": 16409, "x": null, "y": 0.3333333333333333}, {"type": "position", "time": 16459, "x": null, "y": 0.3333333333333333}, {"type": "position", "time": 16509, "x": null, "y": 0.3333333333333333}, {"type": "position", "time": 16559, "x": null, "y": 0.3333333333333333}, {"type": "position", "time": 16609, "x": null, "y": 0.3333333333333333}, {"type": "position", "time": 16659, "x": null, "y": 0.3333333333333333}, {"type": "position", "time": 16709, "x": null, "y": 0.3333333333333333}, {"type": "position", "time": 16759, "x": null, "y": 0.3333333333333333}, {"type": "position", "time": 16809, "x": null, "y": 0.3333333333333333}, {"type": "position", "time": 16859, "x": null, "y": 0.3333333333333333}, {"type": "position", "time": 16909, "x": null, "y": 0.3333333333333333}, {"type": "position", "time": 16959, "x": null, "y": 0.3333333333333333}, {"type": "position", "time": 17009, "x": null, "y": 0.3333333333333333}, {"type": "position", "time": 17059, "x": null, "y": 0.3333333333333333}, {"type": "position", "time": 17109, "x": null, "y": 0.3333333333333333}, {"type": "position", "time": 17159, "x": null, "y": 0.3333333333333333}, {"type": "position", "time": 17209, "x": null, "y": 0.3333333333333333}, {"type": "position", "time": 17259, "x": null, "y": 0.3333333333333333}, {"type": "position", "time": 17309, "x": null, "y": 0.3333333333333333}, {"type": "position", "time": 17359, "x": null, "y": 0.3333333333333333}, {"type": "position", "time": 17409, "x": null, "y": 0.3333333333333333}, {"type": "position", "time": 17459, "x": null, "y": 0.3333333333333333}, {"type": "position", "time": 17509, "x": null, "y": 0.3333333333333333}, {"type": "position", "time": 17559, "x": null, "y": 0.3333333333333333}, {"type": "position", "time": 17609, "x": null, "y": 0.3333333333333333}, {"type": "position", "time": 17659, "x": null, "y": 0.3333333333333333}, {"type": "position", "time": 17709, "x": null, "y": 0.3333333333333333}, {"type": "position", "time": 17759, "x": null, "y": 0.3333333333333333}, {"type": "position", "time": 17809, "x": null, "y": 0.3333333333333333}, {"type": "position", "time": 17859, "x": null, "y": 0.3333333333333333}, {"type": "keyup", "time": 17899, "key": "B", "keyCode": 66}, {"type": "position", "time": 17909, "x": null, "y": 0.3333333333333333}, {"type": "position", "time": 17959, "x": null, "y": 0.3333333333333333}, {"type": "keyup", "time": 17972, "key": "E", "keyCode": 69}, {"type": "position", "time": 18009, "x": null, "y": 0.3333333333333333}, {"type": "position", "time": 18059, "x": null, "y": 0.3333333333333333}, {"type": "position", "time": 18109, "x": null, "y": 0.3333333333333333}, {"type": "position", "time": 18159, "x": null, "y": 0.3333333333333333}, {"type": "position", "time": 18209, "x": null, "y": 0.3333333333333333}, {"type": "keyup", "time": 18218, "key": "C", "keyCode": 67}, {"type": "keyup", "time": 18218, "key": "A", "keyCode": 65}, {"type": "position", "time": 18259, "x": null, "y": 0.3333333333333333}, {"type": "position", "time": 18309, "x": null, "y": 0.3333333333333333}, {"type": "keyup", "time": 18354, "key": "U", "keyCode": 85}, {"type": "position", "time": 18359, "x": null, "y": 0.3333333333333333}, {"type": "position", "time": 18409, "x": null, "y": 0.3333333333333333}, {"type": "position", "time": 18459, "x": null, "y": 0.3333333333333333}, {"type": "keyup", "time": 18474, "key": "S", "keyCode": 83}, {"type": "keyup", "time": 18498, "key": "E", "keyCode": 69}, {"type": "position", "time": 18509, "x": null, "y": 0.3333333333333333}, {"type": "keyup", "time": 18530, "key": " ", "keyCode": 32}, {"type": "position", "time": 18559, "x": null, "y": 0.3333333333333333}, {"type": "position", "time": 18609, "x": null, "y": 0.3333333333333333}, {"type": "position", "time": 18659, "x": null, "y": 0.3333333333333333}, {"type": "position", "time": 18709, "x": null, "y": 0.3333333333333333}, {"type": "keyup", "time": 18746, "key": "H", "keyCode": 72}, {"type": "position", "time": 18759, "x": null, "y": 0.3333333333333333}, {"type": "position", "time": 18809, "x": null, "y": 0.3333333333333333}, {"type": "keyup", "time": 18842, "key": "E", "keyCode": 69}, {"type": "position", "time": 18859, "x": null, "y": 0.3333333333333333}, {"type": "position", "time": 18909, "x": null, "y": 0.3333333333333333}, {"type": "position", "time": 18959, "x": null, "y": 0.3333333333333333}, {"type": "position", "time": 19009, "x": null, "y": 0.3333333333333333}, {"type": "position", "time": 19059, "x": null, "y": 0.3333333333333333}, {"type": "position", "time": 19109, "x": null, "y": 0.3333333333333333}, {"type": "position", "time": 19159, "x": null, "y": 0.3333333333333333}, {"type": "position", "time": 19209, "x": null, "y": 0.3333333333333333}, {"type": "position", "time": 19259, "x": null, "y": 0.3333333333333333}, {"type": "position", "time": 19309, "x": null, "y": 0.3333333333333333}, {"type": "position", "time": 19359, "x": null, "y": 0.3333333333333333}, {"type": "position", "time": 19409, "x": null, "y": 0.3333333333333333}, {"type": "position", "time": 19459, "x": null, "y": 0.3333333333333333}, {"type": "position", "time": 19509, "x": null, "y": 0.3333333333333333}, {"type": "position", "time": 19559, "x": null, "y": 0.3333333333333333}, {"type": "position", "time": 19609, "x": null, "y": 0.3333333333333333}, {"type": "position", "time": 19659, "x": null, "y": 0.3333333333333333}, {"type": "position", "time": 19709, "x": null, "y": 0.3333333333333333}, {"type": "position", "time": 19759, "x": null, "y": 0.3333333333333333}, {"type": "position", "time": 19809, "x": null, "y": 0.3333333333333333}, {"type": "position", "time": 19859, "x": null, "y": 0.3333333333333333}, {"type": "position", "time": 19909, "x": null, "y": 0.3333333333333333}, {"type": "position", "time": 19959, "x": null, "y": 0.3333333333333333}, {"type": "keyup", "time": 19962, "key": "\b", "keyCode": 8}, {"type": "position", "time": 20009, "x": null, "y": 0.3333333333333333}, {"type": "position", "time": 20059, "x": null, "y": 0.3333333333333333}, {"type": "position", "time": 20109, "x": null, "y": 0.3333333333333333}, {"type": "position", "time": 20159, "x": null, "y": 0.3333333333333333}, {"type": "keyup", "time": 20213, "key": "E", "keyCode": 69}, {"type": "position", "time": 20213, "x": null, "y": 0.3333333333333333}, {"type": "keyup", "time": 20235, "key": "H", "keyCode": 72}, {"type": "position", "time": 20259, "x": null, "y": 0.3333333333333333}, {"type": "position", "time": 20309, "x": null, "y": 0.3333333333333333}, {"type": "position", "time": 20359, "x": null, "y": 0.3333333333333333}, {"type": "position", "time": 20409, "x": null, "y": 0.3333333333333333}, {"type": "keyup", "time": 20451, "key": "\b", "keyCode": 8}, {"type": "position", "time": 20459, "x": null, "y": 0.3333333333333333}, {"type": "position", "time": 20509, "x": null, "y": 0.3333333333333333}, {"type": "position", "time": 20559, "x": null, "y": 0.3333333333333333}, {"type": "keyup", "time": 20595, "key": "\b", "keyCode": 8}, {"type": "position", "time": 20609, "x": null, "y": 0.3333333333333333}, {"type": "position", "time": 20659, "x": null, "y": 0.3333333333333333}, {"type": "position", "time": 20709, "x": null, "y": 0.3333333333333333}, {"type": "position", "time": 20759, "x": null, "y": 0.3333333333333333}, {"type": "position", "time": 20809, "x": null, "y": 0.3333333333333333}, {"type": "keyup", "time": 20818, "key": "H", "keyCode": 72}, {"type": "position", "time": 20859, "x": null, "y": 0.3333333333333333}, {"type": "position", "time": 20909, "x": null, "y": 0.3333333333333333}, {"type": "keyup", "time": 20922, "key": "E", "keyCode": 69}, {"type": "position", "time": 20959, "x": null, "y": 0.3333333333333333}, {"type": "position", "time": 21009, "x": null, "y": 0.3333333333333333}, {"type": "keyup", "time": 21010, "key": " ", "keyCode": 32}, {"type": "position", "time": 21059, "x": null, "y": 0.3333333333333333}, {"type": "position", "time": 21109, "x": null, "y": 0.3333333333333333}, {"type": "position", "time": 21159, "x": null, "y": 0.3333333333333333}, {"type": "position", "time": 21209, "x": null, "y": 0.3333333333333333}, {"type": "position", "time": 21259, "x": null, "y": 0.3333333333333333}, {"type": "position", "time": 21309, "x": null, "y": 0.3333333333333333}, {"type": "position", "time": 21359, "x": null, "y": 0.3333333333333333}, {"type": "keyup", "time": 21379, "key": "W", "keyCode": 87}, {"type": "position", "time": 21409, "x": null, "y": 0.3333333333333333}, {"type": "position", "time": 21459, "x": null, "y": 0.3333333333333333}, {"type": "position", "time": 21509, "x": null, "y": 0.3333333333333333}, {"type": "position", "time": 21559, "x": null, "y": 0.3333333333333333}, {"type": "position", "time": 21609, "x": null, "y": 0.3333333333333333}, {"type": "keyup", "time": 21650, "key": "A", "keyCode": 65}, {"type": "position", "time": 21659, "x": null, "y": 0.3333333333333333}, {"type": "keyup", "time": 21698, "key": "S", "keyCode": 83}, {"type": "position", "time": 21711, "x": null, "y": 0.3333333333333333}, {"type": "position", "time": 21759, "x": null, "y": 0.3333333333333333}, {"type": "keyup", "time": 21786, "key": "N", "keyCode": 78}, {"type": "position", "time": 21809, "x": null, "y": 0.3333333333333333}, {"type": "position", "time": 21859, "x": null, "y": 0.3333333333333333}, {"type": "keyup", "time": 21882, "key": "\u00de", "keyCode": 222}, {"type": "position", "time": 21909, "x": null, "y": 0.3333333333333333}, {"type": "position", "time": 21959, "x": null, "y": 0.3333333333333333}, {"type": "keyup", "time": 21986, "key": "T", "keyCode": 84}, {"type": "position", "time": 22009, "x": null, "y": 0.3333333333333333}, {"type": "keyup", "time": 22010, "key": " ", "keyCode": 32}, {"type": "position", "time": 22059, "x": null, "y": 0.3333333333333333}, {"type": "position", "time": 22109, "x": null, "y": 0.3333333333333333}, {"type": "position", "time": 22159, "x": null, "y": 0.3333333333333333}, {"type": "position", "time": 22209, "x": null, "y": 0.3333333333333333}, {"type": "keyup", "time": 22227, "key": "P", "keyCode": 80}, {"type": "position", "time": 22259, "x": null, "y": 0.3333333333333333}, {"type": "keyup", "time": 22298, "key": "L", "keyCode": 76}, {"type": "position", "time": 22309, "x": null, "y": 0.3333333333333333}, {"type": "keyup", "time": 22346, "key": "A", "keyCode": 65}, {"type": "position", "time": 22359, "x": null, "y": 0.3333333333333333}, {"type": "keyup", "time": 22386, "key": "Y", "keyCode": 89}, {"type": "position", "time": 22409, "x": null, "y": 0.3333333333333333}, {"type": "position", "time": 22459, "x": null, "y": 0.3333333333333333}, {"type": "position", "time": 22509, "x": null, "y": 0.3333333333333333}, {"type": "position", "time": 22559, "x": null, "y": 0.3333333333333333}, {"type": "position", "time": 22609, "x": null, "y": 0.3333333333333333}, {"type": "position", "time": 22659, "x": null, "y": 0.3333333333333333}, {"type": "position", "time": 22709, "x": null, "y": 0.3333333333333333}, {"type": "position", "time": 22759, "x": null, "y": 0.3333333333333333}, {"type": "position", "time": 22809, "x": null, "y": 0.3333333333333333}, {"type": "keyup", "time": 22834, "key": "I", "keyCode": 73}, {"type": "position", "time": 22859, "x": null, "y": 0.3333333333333333}, {"type": "position", "time": 22909, "x": null, "y": 0.3333333333333333}, {"type": "keyup", "time": 22914, "key": "N", "keyCode": 78}, {"type": "position", "time": 22959, "x": null, "y": 0.3333333333333333}, {"type": "keyup", "time": 22962, "key": "G", "keyCode": 71}, {"type": "position", "time": 23009, "x": null, "y": 0.3333333333333333}, {"type": "keyup", "time": 23044, "key": " ", "keyCode": 32}, {"type": "position", "time": 23059, "x": null, "y": 0.3333333333333333}, {"type": "position", "time": 23109, "x": null, "y": 0.3333333333333333}, {"type": "position", "time": 23159, "x": null, "y": 0.3333333333333333}, {"type": "position", "time": 23209, "x": null, "y": 0.3333333333333333}, {"type": "keyup", "time": 23218, "key": "H", "keyCode": 72}, {"type": "position", "time": 23259, "x": null, "y": 0.3333333333333333}, {"type": "keyup", "time": 23290, "key": "A", "keyCode": 65}, {"type": "keyup", "time": 23306, "key": "R", "keyCode": 82}, {"type": "position", "time": 23309, "x": null, "y": 0.3333333333333333}, {"type": "position", "time": 23360, "x": null, "y": 0.3333333333333333}, {"type": "position", "time": 23409, "x": null, "y": 0.3333333333333333}, {"type": "position", "time": 23459, "x": null, "y": 0.3333333333333333}, {"type": "keyup", "time": 23507, "key": "D", "keyCode": 68}, {"type": "position", "time": 23509, "x": null, "y": 0.3333333333333333}, {"type": "position", "time": 23562, "x": null, "y": 0.3333333333333333}, {"type": "position", "time": 23610, "x": null, "y": 0.3333333333333333}, {"type": "position", "time": 23662, "x": null, "y": 0.3333333333333333}, {"type": "keyup", "time": 23666, "key": " ", "keyCode": 32}, {"type": "position", "time": 23709, "x": null, "y": 0.3333333333333333}, {"type": "position", "time": 23759, "x": null, "y": 0.3333333333333333}, {"type": "keyup", "time": 23802, "key": "E", "keyCode": 69}, {"type": "position", "time": 23809, "x": null, "y": 0.3333333333333333}, {"type": "keyup", "time": 23858, "key": "N", "keyCode": 78}, {"type": "position", "time": 23859, "x": null, "y": 0.3333333333333333}, {"type": "position", "time": 23909, "x": null, "y": 0.3333333333333333}, {"type": "keyup", "time": 23954, "key": "O", "keyCode": 79}, {"type": "position", "time": 23959, "x": null, "y": 0.3333333333333333}, {"type": "position", "time": 24009, "x": null, "y": 0.3333333333333333}, {"type": "keyup", "time": 24010, "key": "U", "keyCode": 85}, {"type": "keyup", "time": 24050, "key": "G", "keyCode": 71}, {"type": "position", "time": 24059, "x": null, "y": 0.3333333333333333}, {"type": "position", "time": 24109, "x": null, "y": 0.3333333333333333}, {"type": "position", "time": 24159, "x": null, "y": 0.3333333333333333}, {"type": "keyup", "time": 24162, "key": "H", "keyCode": 72}, {"type": "position", "time": 24209, "x": null, "y": 0.3333333333333333}, {"type": "position", "time": 24259, "x": null, "y": 0.3333333333333333}, {"type": "position", "time": 24309, "x": null, "y": 0.3333333333333333}, {"type": "position", "time": 24359, "x": null, "y": 0.3333333333333333}, {"type": "keyup", "time": 24370, "key": "\t", "keyCode": 9}, {"type": "position", "time": 24409, "x": null, "y": 0.3333333333333333}, {"type": "keyup", "time": 24442, "key": " ", "keyCode": 32}, {"type": "click", "time": 24456, "x": null, "y": 0.3333333333333333}, {"type": "position", "time": 24459, "x": null, "y": 0.3333333333333333}, {"type": "position", "time": 24509, "x": null, "y": 0.3333333333333333}, {"type": "position", "time": 24559, "x": null, "y": 0.3333333333333333}, {"type": "position", "time": 24609, "x": null, "y": 0.3333333333333333}, {"type": "position", "time": 24659, "x": null, "y": 0.3333333333333333}, {"type": "position", "time": 24709, "x": null, "y": 0.3333333333333333}, {"type": "position", "time": 24759, "x": null, "y": 0.3333333333333333}, {"type": "position", "time": 24809, "x": null, "y": 0.3333333333333333}, {"type": "position", "time": 24859, "x": null, "y": 0.3333333333333333}, {"type": "position", "time": 24909, "x": null, "y": 0.3333333333333333}, {"type": "position", "time": 24959, "x": null, "y": 0.3333333333333333}, {"type": "position", "time": 25009, "x": null, "y": 0.3333333333333333}, {"type": "position", "time": 25059, "x": null, "y": 0.3333333333333333}, {"type": "position", "time": 25109, "x": null, "y": 0.3333333333333333}, {"type": "position", "time": 25159, "x": null, "y": 0.3333333333333333}, {"type": "position", "time": 25209, "x": null, "y": 0.3333333333333333}, {"type": "position", "time": 25259, "x": null, "y": 0.3333333333333333}, {"type": "position", "time": 25309, "x": null, "y": 0.3333333333333333}, {"type": "position", "time": 25359, "x": null, "y": 0.3333333333333333}, {"type": "position", "time": 25409, "x": null, "y": 0.3333333333333333}, {"type": "position", "time": 25459, "x": null, "y": 0.3333333333333333}, {"type": "position", "time": 25509, "x": null, "y": 0.3983333333333333}, {"type": "position", "time": 25559, "x": null, "y": 0.5866666666666667}, {"type": "position", "time": 25609, "x": null, "y": 0.8033333333333333}, {"type": "position", "time": 25659, "x": null, "y": 0.8033333333333333}, {"type": "position", "time": 25709, "x": null, "y": 0.8033333333333333}, {"type": "position", "time": 25759, "x": null, "y": 0.8033333333333333}, {"type": "position", "time": 25810, "x": null, "y": 0.88}, {"type": "position", "time": 25859, "x": null, "y": 0.8433333333333334}, {"type": "position", "time": 25909, "x": null, "y": 0.8166666666666667}, {"type": "position", "time": 25959, "x": null, "y": 0.7783333333333333}, {"type": "position", "time": 26009, "x": null, "y": 0.7483333333333333}, {"type": "position", "time": 26061, "x": null, "y": 0.73}, {"type": "position", "time": 26109, "x": null, "y": 0.71}, {"type": "position", "time": 26159, "x": null, "y": 0.695}, {"type": "position", "time": 26209, "x": null, "y": 0.68}, {"type": "slider", "time": 26241, "value": 0.45}, {"type": "position", "time": 26259, "x": null, "y": 0.68}, {"type": "slider", "time": 26302, "value": 0.44}, {"type": "slider", "time": 26318, "value": 0.43}, {"type": "position", "time": 26323, "x": null, "y": 0.6816666666666666}, {"type": "slider", "time": 26333, "value": 0.41}, {"type": "slider", "time": 26343, "value": 0.4}, {"type": "slider", "time": 26359, "value": 0.34}, {"type": "position", "time": 26360, "x": null, "y": 0.6816666666666666}, {"type": "slider", "time": 26376, "value": 0.31}, {"type": "slider", "time": 26392, "value": 0.28}, {"type": "slider", "time": 26407, "value": 0.27}, {"type": "position", "time": 26409, "x": null, "y": 0.6866666666666666}, {"type": "slider", "time": 26424, "value": 0.25}, {"type": "slider", "time": 26443, "value": 0.24}, {"type": "position", "time": 26459, "x": null, "y": 0.69}, {"type": "position", "time": 26509, "x": null, "y": 0.69}, {"type": "click", "time": 26548, "x": null, "y": 0.69}, {"type": "position", "time": 26559, "x": null, "y": 0.69}, {"type": "position", "time": 26609, "x": null, "y": 0.6916666666666667}, {"type": "position", "time": 26659, "x": null, "y": 0.7016666666666667}, {"type": "position", "time": 26709, "x": null, "y": 0.7016666666666667}, {"type": "position", "time": 26759, "x": null, "y": 0.7016666666666667}, {"type": "position", "time": 26809, "x": null, "y": 0.7016666666666667}, {"type": "position", "time": 26860, "x": null, "y": 0.7016666666666667}, {"type": "position", "time": 26909, "x": null, "y": 0.7}, {"type": "position", "time": 26959, "x": null, "y": 0.7383333333333333}, {"type": "position", "time": 27009, "x": null, "y": 0.7733333333333333}, {"type": "position", "time": 27060, "x": null, "y": 0.7866666666666666}, {"type": "position", "time": 27109, "x": null, "y": 0.795}, {"type": "position", "time": 27159, "x": null, "y": 0.7983333333333333}, {"type": "position", "time": 27209, "x": null, "y": 0.8}, {"type": "position", "time": 27259, "x": null, "y": 0.8}, {"type": "position", "time": 27309, "x": null, "y": 0.8}, {"type": "click", "time": 27345, "x": null, "y": 0.8}, {"type": "position", "time": 27359, "x": null, "y": 0.8}, {"type": "position", "time": 27409, "x": null, "y": 0.8}, {"type": "position", "time": 27459, "x": null, "y": 0.8}, {"type": "position", "time": 27509, "x": null, "y": 0.8}, {"type": "position", "time": 27559, "x": null, "y": 0.8016666666666666}, {"type": "position", "time": 27609, "x": null, "y": 0.8016666666666666}, {"type": "position", "time": 27659, "x": null, "y": 0.805}, {"type": "position", "time": 27709, "x": null, "y": 0.805}, {"type": "position", "time": 27759, "x": null, "y": 0.805}, {"type": "position", "time": 27809, "x": null, "y": 0.8066666666666666}, {"type": "position", "time": 27859, "x": null, "y": 0.8133333333333334}, {"type": "position", "time": 27909, "x": null, "y": 0.83}, {"type": "position", "time": 27959, "x": null, "y": 0.8516666666666667}, {"type": "position", "time": 28009, "x": null, "y": 0.8733333333333333}, {"type": "position", "time": 28059, "x": null, "y": 0.8733333333333333}, {"type": "position", "time": 28109, "x": null, "y": 0.8733333333333333}, {"type": "position", "time": 28159, "x": null, "y": 0.8733333333333333}, {"type": "position", "time": 28209, "x": null, "y": 0.8733333333333333}, {"type": "position", "time": 28259, "x": null, "y": 0.8733333333333333}, {"type": "position", "time": 28309, "x": null, "y": 0.8733333333333333}, {"type": "position", "time": 28359, "x": null, "y": 0.8733333333333333}, {"type": "position", "time": 28409, "x": null, "y": 0.8733333333333333}, {"type": "position", "time": 28459, "x": null, "y": 0.8733333333333333}, {"type": "position", "time": 28509, "x": null, "y": 0.8733333333333333}, {"type": "position", "time": 28559, "x": null, "y": 0.8733333333333333}, {"type": "position", "time": 28609, "x": null, "y": 0.8733333333333333}, {"type": "position", "time": 28659, "x": null, "y": 0.8733333333333333}, {"type": "position", "time": 28709, "x": null, "y": 0.8733333333333333}, {"type": "position", "time": 28759, "x": null, "y": 0.8733333333333333}, {"type": "position", "time": 28809, "x": null, "y": 0.8733333333333333}, {"type": "position", "time": 28859, "x": null, "y": 0.8733333333333333}, {"type": "position", "time": 28909, "x": null, "y": 0.8716666666666667}, {"type": "position", "time": 28965, "x": null, "y": 0.865}, {"type": "position", "time": 29009, "x": null, "y": 0.8633333333333333}, {"type": "position", "time": 29059, "x": null, "y": 0.8633333333333333}, {"type": "position", "time": 29109, "x": null, "y": 0.86}, {"type": "position", "time": 29159, "x": null, "y": 0.8566666666666667}, {"type": "position", "time": 29209, "x": null, "y": 0.8516666666666667}, {"type": "position", "time": 29259, "x": null, "y": 0.8516666666666667}, {"type": "position", "time": 29309, "x": null, "y": 0.8483333333333334}, {"type": "position", "time": 29359, "x": null, "y": 0.8466666666666667}, {"type": "position", "time": 29409, "x": null, "y": 0.8433333333333334}, {"type": "position", "time": 29459, "x": null, "y": 0.8433333333333334}, {"type": "position", "time": 29509, "x": null, "y": 0.8433333333333334}, {"type": "position", "time": 29559, "x": null, "y": 0.84}, {"type": "position", "time": 29609, "x": null, "y": 0.8383333333333334}, {"type": "position", "time": 29659, "x": null, "y": 0.8383333333333334}, {"type": "position", "time": 29709, "x": null, "y": 0.835}, {"type": "position", "time": 29759, "x": null, "y": 0.835}, {"type": "position", "time": 29809, "x": null, "y": 0.835}, {"type": "position", "time": 29859, "x": null, "y": 0.835}, {"type": "position", "time": 29909, "x": null, "y": 0.835}, {"type": "position", "time": 29959, "x": null, "y": 0.83}, {"type": "position", "time": 30009, "x": null, "y": 0.83}, {"type": "position", "time": 30059, "x": null, "y": 0.83}, {"type": "position", "time": 30109, "x": null, "y": 0.83}, {"type": "position", "time": 30159, "x": null, "y": 0.83}, {"type": "position", "time": 30209, "x": null, "y": 0.83}, {"type": "position", "time": 30259, "x": null, "y": 0.8266666666666667}, {"type": "position", "time": 30309, "x": null, "y": 0.8216666666666667}, {"type": "position", "time": 30359, "x": null, "y": 0.8216666666666667}, {"type": "position", "time": 30409, "x": null, "y": 0.8216666666666667}, {"type": "position", "time": 30459, "x": null, "y": 0.8216666666666667}, {"type": "position", "time": 30509, "x": null, "y": 0.8216666666666667}, {"type": "position", "time": 30567, "x": null, "y": 0.8216666666666667}, {"type": "position", "time": 30609, "x": null, "y": 0.8216666666666667}, {"type": "position", "time": 30660, "x": null, "y": 0.8216666666666667}, {"type": "position", "time": 30709, "x": null, "y": 0.8216666666666667}, {"type": "position", "time": 30759, "x": null, "y": 0.8216666666666667}, {"type": "position", "time": 30809, "x": null, "y": 0.8216666666666667}, {"type": "position", "time": 30859, "x": null, "y": 0.8216666666666667}, {"type": "position", "time": 30909, "x": null, "y": 0.8216666666666667}, {"type": "position", "time": 30959, "x": null, "y": 0.8216666666666667}, {"type": "position", "time": 31009, "x": null, "y": 0.8216666666666667}, {"type": "position", "time": 31059, "x": null, "y": 0.8216666666666667}, {"type": "position", "time": 31109, "x": null, "y": 0.8216666666666667}, {"type": "position", "time": 31159, "x": null, "y": 0.8216666666666667}, {"type": "position", "time": 31209, "x": null, "y": 0.8216666666666667}, {"type": "position", "time": 31259, "x": null, "y": 0.8216666666666667}, {"type": "position", "time": 31325, "x": null, "y": 0.8216666666666667}, {"type": "position", "time": 31359, "x": null, "y": 0.8216666666666667}, {"type": "position", "time": 31409, "x": null, "y": 0.8216666666666667}, {"type": "position", "time": 31461, "x": null, "y": 0.8233333333333334}, {"type": "position", "time": 31509, "x": null, "y": 0.825}, {"type": "position", "time": 31559, "x": null, "y": 0.825}, {"type": "position", "time": 31609, "x": null, "y": 0.825}, {"type": "position", "time": 31660, "x": null, "y": 0.825}, {"type": "position", "time": 31709, "x": null, "y": 0.825}, {"type": "position", "time": 31759, "x": null, "y": 0.825}, {"type": "position", "time": 31809, "x": null, "y": 0.825}, {"type": "position", "time": 31859, "x": null, "y": 0.825}, {"type": "position", "time": 31909, "x": null, "y": 0.825}, {"type": "position", "time": 31959, "x": null, "y": 0.8266666666666667}, {"type": "position", "time": 32009, "x": null, "y": 0.8266666666666667}, {"type": "position", "time": 32059, "x": null, "y": 0.8266666666666667}, {"type": "position", "time": 32109, "x": null, "y": 0.8266666666666667}, {"type": "position", "time": 32159, "x": null, "y": 0.8266666666666667}, {"type": "position", "time": 32209, "x": null, "y": 0.8266666666666667}, {"type": "position", "time": 32259, "x": null, "y": 0.8266666666666667}, {"type": "position", "time": 32309, "x": null, "y": 0.8266666666666667}, {"type": "position", "time": 32359, "x": null, "y": 0.8266666666666667}, {"type": "position", "time": 32409, "x": null, "y": 0.83}, {"type": "position", "time": 32459, "x": null, "y": 0.8433333333333334}, {"type": "position", "time": 32509, "x": null, "y": 0.8833333333333333}, {"type": "position", "time": 32559, "x": null, "y": 0.8833333333333333}, {"type": "position", "time": 32609, "x": null, "y": 0.8833333333333333}, {"type": "position", "time": 32659, "x": null, "y": 0.8833333333333333}, {"type": "position", "time": 32709, "x": null, "y": 0.8833333333333333}, {"type": "position", "time": 32759, "x": null, "y": 0.8833333333333333}, {"type": "position", "time": 32809, "x": null, "y": 0.8833333333333333}, {"type": "position", "time": 32860, "x": null, "y": 0.8833333333333333}, {"type": "position", "time": 32910, "x": null, "y": 0.87}, {"type": "position", "time": 32959, "x": null, "y": 0.83}, {"type": "position", "time": 33009, "x": null, "y": 0.795}, {"type": "position", "time": 33060, "x": null, "y": 0.775}, {"type": "position", "time": 33109, "x": null, "y": 0.7316666666666667}, {"type": "position", "time": 33159, "x": null, "y": 0.7083333333333334}, {"type": "position", "time": 33209, "x": null, "y": 0.69}, {"type": "position", "time": 33259, "x": null, "y": 0.6716666666666666}, {"type": "position", "time": 33309, "x": null, "y": 0.65}, {"type": "position", "time": 33359, "x": null, "y": 0.6283333333333333}, {"type": "position", "time": 33409, "x": null, "y": 0.6033333333333334}, {"type": "position", "time": 33459, "x": null, "y": 0.5966666666666667}, {"type": "position", "time": 33509, "x": null, "y": 0.5983333333333334}, {"type": "position", "time": 33559, "x": null, "y": 0.605}, {"type": "position", "time": 33609, "x": null, "y": 0.6083333333333333}, {"type": "position", "time": 33659, "x": null, "y": 0.6083333333333333}, {"type": "position", "time": 33709, "x": null, "y": 0.6083333333333333}, {"type": "position", "time": 33759, "x": null, "y": 0.6083333333333333}, {"type": "position", "time": 33809, "x": null, "y": 0.6083333333333333}, {"type": "click", "time": 33858, "x": null, "y": 0.6083333333333333}, {"type": "position", "time": 33859, "x": null, "y": 0.6083333333333333}, {"type": "position", "time": 33909, "x": null, "y": 0.5966666666666667}, {"type": "position", "time": 33959, "x": null, "y": 0.5933333333333334}, {"type": "slider", "time": 33996, "value": 0.25}, {"type": "position", "time": 34009, "x": null, "y": 0.5933333333333334}, {"type": "position", "time": 34059, "x": null, "y": 0.5933333333333334}, {"type": "click", "time": 34083, "x": null, "y": 0.5933333333333334}, {"type": "position", "time": 34109, "x": null, "y": 0.5933333333333334}, {"type": "position", "time": 34159, "x": null, "y": 0.5866666666666667}, {"type": "position", "time": 34209, "x": null, "y": 0.5866666666666667}, {"type": "slider", "time": 34220, "value": 0.18}, {"type": "position", "time": 34259, "x": null, "y": 0.5866666666666667}, {"type": "position", "time": 34309, "x": null, "y": 0.5866666666666667}, {"type": "click", "time": 34325, "x": null, "y": 0.5866666666666667}, {"type": "position", "time": 34359, "x": null, "y": 0.5866666666666667}, {"type": "position", "time": 34409, "x": null, "y": 0.5883333333333334}, {"type": "position", "time": 34459, "x": null, "y": 0.6183333333333333}, {"type": "position", "time": 34509, "x": null, "y": 0.6633333333333333}, {"type": "position", "time": 34559, "x": null, "y": 0.6816666666666666}, {"type": "position", "time": 34609, "x": null, "y": 0.69}, {"type": "position", "time": 34659, "x": null, "y": 0.7033333333333334}, {"type": "position", "time": 34709, "x": null, "y": 0.7033333333333334}, {"type": "position", "time": 34764, "x": null, "y": 0.7033333333333334}, {"type": "position", "time": 34809, "x": null, "y": 0.7}, {"type": "position", "time": 34859, "x": null, "y": 0.6983333333333334}, {"type": "position", "time": 34909, "x": null, "y": 0.6966666666666667}, {"type": "position", "time": 34959, "x": null, "y": 0.6966666666666667}, {"type": "position", "time": 35009, "x": null, "y": 0.6916666666666667}, {"type": "position", "time": 35059, "x": null, "y": 0.6916666666666667}, {"type": "position", "time": 35109, "x": null, "y": 0.6916666666666667}, {"type": "position", "time": 35159, "x": null, "y": 0.6916666666666667}, {"type": "position", "time": 35209, "x": null, "y": 0.6916666666666667}, {"type": "position", "time": 35261, "x": null, "y": 0.6916666666666667}, {"type": "position", "time": 35309, "x": null, "y": 0.6916666666666667}, {"type": "position", "time": 35359, "x": null, "y": 0.6916666666666667}, {"type": "position", "time": 35409, "x": null, "y": 0.6916666666666667}, {"type": "position", "time": 35459, "x": null, "y": 0.6916666666666667}, {"type": "position", "time": 35509, "x": null, "y": 0.6916666666666667}, {"type": "position", "time": 35560, "x": null, "y": 0.6916666666666667}, {"type": "position", "time": 35609, "x": null, "y": 0.6916666666666667}, {"type": "position", "time": 35659, "x": null, "y": 0.6916666666666667}, {"type": "position", "time": 35709, "x": null, "y": 0.6916666666666667}, {"type": "position", "time": 35759, "x": null, "y": 0.6916666666666667}, {"type": "position", "time": 35809, "x": null, "y": 0.6916666666666667}, {"type": "position", "time": 35859, "x": null, "y": 0.6916666666666667}, {"type": "position", "time": 35909, "x": null, "y": 0.6916666666666667}, {"type": "position", "time": 35959, "x": null, "y": 0.6916666666666667}, {"type": "position", "time": 36009, "x": null, "y": 0.6916666666666667}, {"type": "position", "time": 36060, "x": null, "y": 0.6916666666666667}, {"type": "position", "time": 36109, "x": null, "y": 0.6916666666666667}, {"type": "position", "time": 36165, "x": null, "y": 0.6916666666666667}, {"type": "position", "time": 36209, "x": null, "y": 0.6916666666666667}, {"type": "position", "time": 36259, "x": null, "y": 0.6916666666666667}, {"type": "click", "time": 36287, "x": null, "y": 0.6916666666666667}, {"type": "position", "time": 36309, "x": null, "y": 0.6916666666666667}, {"type": "position", "time": 36359, "x": null, "y": 0.6916666666666667}, {"type": "position", "time": 36409, "x": null, "y": 0.6916666666666667}, {"type": "position", "time": 36459, "x": null, "y": 0.6916666666666667}, {"type": "position", "time": 36509, "x": null, "y": 0.6916666666666667}, {"type": "position", "time": 36559, "x": null, "y": 0.6916666666666667}, {"type": "position", "time": 36609, "x": null, "y": 0.6916666666666667}, {"type": "position", "time": 36659, "x": null, "y": 0.6916666666666667}, {"type": "position", "time": 36709, "x": null, "y": 0.6916666666666667}, {"type": "position", "time": 36759, "x": null, "y": 0.6916666666666667}, {"type": "position", "time": 36809, "x": null, "y": 0.6916666666666667}, {"type": "position", "time": 36859, "x": null, "y": 0.6916666666666667}, {"type": "position", "time": 36909, "x": null, "y": 0.6916666666666667}, {"type": "position", "time": 36959, "x": null, "y": 0.6916666666666667}, {"type": "position", "time": 37009, "x": null, "y": 0.6916666666666667}, {"type": "position", "time": 37059, "x": null, "y": 0.6916666666666667}, {"type": "position", "time": 37109, "x": null, "y": 0.6916666666666667}, {"type": "position", "time": 37159, "x": null, "y": 0.6916666666666667}, {"type": "position", "time": 37209, "x": null, "y": 0.6916666666666667}, {"type": "position", "time": 37259, "x": null, "y": 0.6916666666666667}, {"type": "position", "time": 37309, "x": null, "y": 0.6916666666666667}, {"type": "position", "time": 37359, "x": null, "y": 0.6916666666666667}, {"type": "position", "time": 37409, "x": null, "y": 0.6916666666666667}, {"type": "position", "time": 37459, "x": null, "y": 0.6916666666666667}, {"type": "position", "time": 37509, "x": null, "y": 0.6916666666666667}, {"type": "position", "time": 37559, "x": null, "y": 0.6916666666666667}, {"type": "position", "time": 37609, "x": null, "y": 0.6916666666666667}, {"type": "position", "time": 37659, "x": null, "y": 0.6916666666666667}, {"type": "position", "time": 37709, "x": null, "y": 0.6916666666666667}, {"type": "position", "time": 37759, "x": null, "y": 0.6916666666666667}, {"type": "position", "time": 37809, "x": null, "y": 0.6916666666666667}, {"type": "position", "time": 37859, "x": null, "y": 0.6916666666666667}, {"type": "position", "time": 37909, "x": null, "y": 0.6916666666666667}, {"type": "position", "time": 37959, "x": null, "y": 0.6916666666666667}, {"type": "position", "time": 38009, "x": null, "y": 0.6916666666666667}, {"type": "position", "time": 38060, "x": null, "y": 0.6916666666666667}, {"type": "position", "time": 38109, "x": null, "y": 0.6916666666666667}, {"type": "position", "time": 38159, "x": null, "y": 0.6916666666666667}, {"type": "position", "time": 38209, "x": null, "y": 0.6916666666666667}, {"type": "position", "time": 38259, "x": null, "y": 0.6916666666666667}, {"type": "position", "time": 38309, "x": null, "y": 0.6916666666666667}, {"type": "position", "time": 38359, "x": null, "y": 0.6916666666666667}, {"type": "position", "time": 38409, "x": null, "y": 0.6916666666666667}, {"type": "position", "time": 38459, "x": null, "y": 0.6916666666666667}, {"type": "position", "time": 38509, "x": null, "y": 0.6916666666666667}, {"type": "position", "time": 38559, "x": null, "y": 0.6916666666666667}, {"type": "position", "time": 38609, "x": null, "y": 0.6916666666666667}, {"type": "position", "time": 38660, "x": null, "y": 0.6916666666666667}, {"type": "position", "time": 38709, "x": null, "y": 0.6916666666666667}, {"type": "position", "time": 38759, "x": null, "y": 0.6916666666666667}, {"type": "position", "time": 38809, "x": null, "y": 0.6916666666666667}, {"type": "position", "time": 38859, "x": null, "y": 0.6916666666666667}, {"type": "position", "time": 38909, "x": null, "y": 0.6916666666666667}, {"type": "position", "time": 38959, "x": null, "y": 0.6916666666666667}, {"type": "position", "time": 39009, "x": null, "y": 0.6916666666666667}, {"type": "position", "time": 39063, "x": null, "y": 0.6916666666666667}, {"type": "position", "time": 39109, "x": null, "y": 0.6916666666666667}, {"type": "position", "time": 39159, "x": null, "y": 0.6916666666666667}, {"type": "position", "time": 39209, "x": null, "y": 0.6916666666666667}, {"type": "position", "time": 39259, "x": null, "y": 0.6916666666666667}, {"type": "position", "time": 39309, "x": null, "y": 0.6916666666666667}, {"type": "position", "time": 39359, "x": null, "y": 0.6916666666666667}, {"type": "position", "time": 39409, "x": null, "y": 0.6916666666666667}, {"type": "position", "time": 39459, "x": null, "y": 0.6916666666666667}, {"type": "position", "time": 39509, "x": null, "y": 0.6916666666666667}, {"type": "position", "time": 39559, "x": null, "y": 0.6916666666666667}, {"type": "position", "time": 39609, "x": null, "y": 0.6916666666666667}, {"type": "position", "time": 39659, "x": null, "y": 0.6916666666666667}, {"type": "position", "time": 39709, "x": null, "y": 0.6916666666666667}, {"type": "position", "time": 39759, "x": null, "y": 0.6916666666666667}, {"type": "position", "time": 39809, "x": null, "y": 0.6916666666666667}, {"type": "position", "time": 39860, "x": null, "y": 0.6916666666666667}, {"type": "position", "time": 39909, "x": null, "y": 0.6916666666666667}, {"type": "position", "time": 39959, "x": null, "y": 0.6916666666666667}, {"type": "position", "time": 40009, "x": null, "y": 0.6916666666666667}, {"type": "position", "time": 40059, "x": null, "y": 0.6916666666666667}, {"type": "position", "time": 40109, "x": null, "y": 0.6916666666666667}, {"type": "position", "time": 40159, "x": null, "y": 0.6916666666666667}, {"type": "position", "time": 40209, "x": null, "y": 0.6916666666666667}, {"type": "position", "time": 40259, "x": null, "y": 0.6916666666666667}, {"type": "position", "time": 40309, "x": null, "y": 0.6916666666666667}, {"type": "position", "time": 40359, "x": null, "y": 0.6916666666666667}, {"type": "position", "time": 40409, "x": null, "y": 0.6916666666666667}, {"type": "position", "time": 40459, "x": null, "y": 0.6916666666666667}, {"type": "position", "time": 40509, "x": null, "y": 0.6916666666666667}, {"type": "position", "time": 40559, "x": null, "y": 0.6916666666666667}, {"type": "position", "time": 40609, "x": null, "y": 0.6916666666666667}, {"type": "position", "time": 40661, "x": null, "y": 0.6916666666666667}, {"type": "position", "time": 40709, "x": null, "y": 0.6916666666666667}, {"type": "position", "time": 40759, "x": null, "y": 0.6916666666666667}, {"type": "position", "time": 40809, "x": null, "y": 0.6916666666666667}, {"type": "position", "time": 40859, "x": null, "y": 0.6916666666666667}, {"type": "position", "time": 40909, "x": null, "y": 0.6916666666666667}, {"type": "position", "time": 40959, "x": null, "y": 0.6916666666666667}, {"type": "position", "time": 41009, "x": null, "y": 0.6916666666666667}, {"type": "position", "time": 41059, "x": null, "y": 0.6916666666666667}, {"type": "position", "time": 41109, "x": null, "y": 0.6916666666666667}, {"type": "position", "time": 41159, "x": null, "y": 0.6916666666666667}, {"type": "position", "time": 41209, "x": null, "y": 0.6916666666666667}, {"type": "position", "time": 41259, "x": null, "y": 0.6916666666666667}, {"type": "position", "time": 41309, "x": null, "y": 0.6916666666666667}, {"type": "position", "time": 41359, "x": null, "y": 0.6916666666666667}, {"type": "position", "time": 41409, "x": null, "y": 0.6916666666666667}, {"type": "position", "time": 41459, "x": null, "y": 0.6916666666666667}, {"type": "position", "time": 41509, "x": null, "y": 0.6916666666666667}, {"type": "position", "time": 41559, "x": null, "y": 0.6916666666666667}, {"type": "position", "time": 41609, "x": null, "y": 0.6916666666666667}, {"type": "position", "time": 41659, "x": null, "y": 0.6916666666666667}, {"type": "position", "time": 41709, "x": null, "y": 0.6916666666666667}, {"type": "position", "time": 41759, "x": null, "y": 0.6916666666666667}, {"type": "position", "time": 41809, "x": null, "y": 0.6916666666666667}, {"type": "position", "time": 41859, "x": null, "y": 0.6916666666666667}, {"type": "position", "time": 41909, "x": null, "y": 0.6916666666666667}, {"type": "position", "time": 41959, "x": null, "y": 0.6916666666666667}, {"type": "position", "time": 42009, "x": null, "y": 0.6916666666666667}, {"type": "position", "time": 42059, "x": null, "y": 0.6916666666666667}, {"type": "position", "time": 42109, "x": null, "y": 0.6916666666666667}, {"type": "position", "time": 42159, "x": null, "y": 0.6916666666666667}, {"type": "position", "time": 42209, "x": null, "y": 0.6916666666666667}, {"type": "position", "time": 42259, "x": null, "y": 0.6916666666666667}, {"type": "position", "time": 42309, "x": null, "y": 0.6916666666666667}, {"type": "position", "time": 42359, "x": null, "y": 0.6916666666666667}, {"type": "position", "time": 42409, "x": null, "y": 0.6916666666666667}, {"type": "position", "time": 42459, "x": null, "y": 0.6916666666666667}, {"type": "position", "time": 42509, "x": null, "y": 0.6916666666666667}, {"type": "position", "time": 42559, "x": null, "y": 0.6916666666666667}, {"type": "position", "time": 42609, "x": null, "y": 0.6916666666666667}, {"type": "position", "time": 42659, "x": null, "y": 0.6916666666666667}, {"type": "position", "time": 42709, "x": null, "y": 0.6916666666666667}, {"type": "position", "time": 42759, "x": null, "y": 0.6916666666666667}, {"type": "position", "time": 42809, "x": null, "y": 0.6916666666666667}, {"type": "position", "time": 42859, "x": null, "y": 0.6916666666666667}, {"type": "position", "time": 42909, "x": null, "y": 0.6916666666666667}, {"type": "position", "time": 42959, "x": null, "y": 0.6916666666666667}, {"type": "position", "time": 43009, "x": null, "y": 0.6916666666666667}, {"type": "position", "time": 43059, "x": null, "y": 0.6916666666666667}, {"type": "position", "time": 43109, "x": null, "y": 0.6916666666666667}, {"type": "position", "time": 43159, "x": null, "y": 0.6916666666666667}, {"type": "position", "time": 43209, "x": null, "y": 0.6916666666666667}, {"type": "position", "time": 43259, "x": null, "y": 0.6916666666666667}, {"type": "position", "time": 43309, "x": null, "y": 0.6883333333333334}, {"type": "position", "time": 43359, "x": null, "y": 0.675}, {"type": "position", "time": 43409, "x": null, "y": 0.66}, {"type": "position", "time": 43459, "x": null, "y": 0.6483333333333333}, {"type": "position", "time": 43509, "x": null, "y": 0.6416666666666667}, {"type": "position", "time": 43559, "x": null, "y": 0.6116666666666667}, {"type": "position", "time": 43609, "x": null, "y": 0.585}, {"type": "position", "time": 43659, "x": null, "y": 0.5816666666666667}, {"type": "position", "time": 43709, "x": null, "y": 0.5816666666666667}, {"type": "position", "time": 43759, "x": null, "y": 0.5816666666666667}, {"type": "position", "time": 43809, "x": null, "y": 0.5816666666666667}, {"type": "position", "time": 43859, "x": null, "y": 0.5816666666666667}, {"type": "position", "time": 43909, "x": null, "y": 0.59}, {"type": "position", "time": 43959, "x": null, "y": 0.5916666666666667}, {"type": "position", "time": 44009, "x": null, "y": 0.5916666666666667}, {"type": "slider", "time": 44029, "value": 0.48}, {"type": "position", "time": 44059, "x": null, "y": 0.5916666666666667}, {"type": "position", "time": 44109, "x": null, "y": 0.5916666666666667}, {"type": "position", "time": 44159, "x": null, "y": 0.5916666666666667}, {"type": "position", "time": 44209, "x": null, "y": 0.5916666666666667}, {"type": "position", "time": 44259, "x": null, "y": 0.5916666666666667}, {"type": "position", "time": 44309, "x": null, "y": 0.5916666666666667}, {"type": "position", "time": 44359, "x": null, "y": 0.5916666666666667}, {"type": "position", "time": 44409, "x": null, "y": 0.5916666666666667}, {"type": "click", "time": 44411, "x": null, "y": 0.5916666666666667}, {"type": "position", "time": 44459, "x": null, "y": 0.6033333333333334}, {"type": "position", "time": 44509, "x": null, "y": 0.6466666666666666}, {"type": "position", "time": 44559, "x": null, "y": 0.7133333333333334}, {"type": "position", "time": 44609, "x": null, "y": 0.7616666666666667}, {"type": "position", "time": 44659, "x": null, "y": 0.78}, {"type": "position", "time": 44709, "x": null, "y": 0.7833333333333333}, {"type": "position", "time": 44759, "x": null, "y": 0.7783333333333333}, {"type": "position", "time": 44809, "x": null, "y": 0.775}, {"type": "position", "time": 44859, "x": null, "y": 0.7716666666666666}, {"type": "position", "time": 44909, "x": null, "y": 0.7616666666666667}, {"type": "position", "time": 44959, "x": null, "y": 0.7533333333333333}, {"type": "position", "time": 45009, "x": null, "y": 0.7533333333333333}, {"type": "position", "time": 45067, "x": null, "y": 0.7483333333333333}, {"type": "position", "time": 45109, "x": null, "y": 0.7383333333333333}, {"type": "position", "time": 45159, "x": null, "y": 0.725}, {"type": "position", "time": 45209, "x": null, "y": 0.6933333333333334}, {"type": "position", "time": 45259, "x": null, "y": 0.6483333333333333}, {"type": "position", "time": 45309, "x": null, "y": 0.6283333333333333}, {"type": "position", "time": 45359, "x": null, "y": 0.62}, {"type": "position", "time": 45409, "x": null, "y": 0.62}, {"type": "position", "time": 45459, "x": null, "y": 0.62}, {"type": "position", "time": 45509, "x": null, "y": 0.62}, {"type": "position", "time": 45559, "x": null, "y": 0.61}, {"type": "position", "time": 45609, "x": null, "y": 0.5966666666666667}, {"type": "position", "time": 45659, "x": null, "y": 0.5933333333333334}, {"type": "position", "time": 45709, "x": null, "y": 0.5933333333333334}, {"type": "position", "time": 45759, "x": null, "y": 0.5933333333333334}, {"type": "click", "time": 45762, "x": null, "y": 0.5933333333333334}, {"type": "position", "time": 45809, "x": null, "y": 0.5933333333333334}, {"type": "slider", "time": 45851, "value": 0.33}, {"type": "position", "time": 45859, "x": null, "y": 0.5933333333333334}, {"type": "position", "time": 45909, "x": null, "y": 0.5933333333333334}, {"type": "click", "time": 45949, "x": null, "y": 0.5933333333333334}, {"type": "position", "time": 45959, "x": null, "y": 0.5933333333333334}, {"type": "position", "time": 46009, "x": null, "y": 0.5933333333333334}, {"type": "position", "time": 46059, "x": null, "y": 0.5933333333333334}, {"type": "position", "time": 46109, "x": null, "y": 0.5966666666666667}, {"type": "position", "time": 46159, "x": null, "y": 0.6366666666666667}, {"type": "position", "time": 46209, "x": null, "y": 0.6733333333333333}, {"type": "position", "time": 46259, "x": null, "y": 0.6783333333333333}, {"type": "position", "time": 46309, "x": null, "y": 0.6783333333333333}, {"type": "position", "time": 46362, "x": null, "y": 0.6783333333333333}, {"type": "position", "time": 46409, "x": null, "y": 0.6783333333333333}, {"type": "position", "time": 46459, "x": null, "y": 0.6783333333333333}, {"type": "click", "time": 46504, "x": null, "y": 0.6783333333333333}, {"type": "position", "time": 46509, "x": null, "y": 0.68}, {"type": "position", "time": 46559, "x": null, "y": 0.68}, {"type": "position", "time": 46609, "x": null, "y": 0.68}, {"type": "position", "time": 46659, "x": null, "y": 0.68}, {"type": "position", "time": 46709, "x": null, "y": 0.68}, {"type": "position", "time": 46759, "x": null, "y": 0.68}, {"type": "position", "time": 46809, "x": null, "y": 0.68}, {"type": "position", "time": 46859, "x": null, "y": 0.68}, {"type": "position", "time": 46909, "x": null, "y": 0.68}, {"type": "position", "time": 46959, "x": null, "y": 0.68}, {"type": "position", "time": 47009, "x": null, "y": 0.68}, {"type": "position", "time": 47059, "x": null, "y": 0.68}, {"type": "position", "time": 47109, "x": null, "y": 0.68}, {"type": "position", "time": 47159, "x": null, "y": 0.6766666666666666}, {"type": "position", "time": 47209, "x": null, "y": 0.675}, {"type": "position", "time": 47259, "x": null, "y": 0.6616666666666666}, {"type": "position", "time": 47309, "x": null, "y": 0.6133333333333333}, {"type": "position", "time": 47359, "x": null, "y": 0.5366666666666666}, {"type": "position", "time": 47409, "x": null, "y": 0.5216666666666666}, {"type": "position", "time": 47459, "x": null, "y": 0.5216666666666666}, {"type": "position", "time": 47512, "x": null, "y": 0.5216666666666666}, {"type": "position", "time": 47559, "x": null, "y": 0.5216666666666666}, {"type": "position", "time": 47609, "x": null, "y": 0.5183333333333333}, {"type": "position", "time": 47659, "x": null, "y": 0.5183333333333333}, {"type": "position", "time": 47709, "x": null, "y": 0.5183333333333333}, {"type": "position", "time": 47759, "x": null, "y": 0.5183333333333333}, {"type": "click", "time": 47802, "x": null, "y": 0.5183333333333333}, {"type": "position", "time": 47809, "x": null, "y": 0.5183333333333333}, {"type": "position", "time": 47859, "x": null, "y": 0.5183333333333333}, {"type": "position", "time": 47909, "x": null, "y": 0.5183333333333333}, {"type": "position", "time": 47959, "x": null, "y": 0.5183333333333333}, {"type": "position", "time": 48009, "x": null, "y": 0.5183333333333333}, {"type": "position", "time": 48059, "x": null, "y": 0.5183333333333333}, {"type": "position", "time": 48109, "x": null, "y": 0.5333333333333333}, {"type": "position", "time": 48159, "x": null, "y": 0.5933333333333334}, {"type": "position", "time": 48209, "x": null, "y": 0.6283333333333333}, {"type": "position", "time": 48259, "x": null, "y": 0.625}, {"type": "position", "time": 48309, "x": null, "y": 0.625}, {"type": "position", "time": 48359, "x": null, "y": 0.625}, {"type": "position", "time": 48409, "x": null, "y": 0.625}, {"type": "position", "time": 48459, "x": null, "y": 0.625}, {"type": "position", "time": 48509, "x": null, "y": 0.625}, {"type": "position", "time": 48559, "x": null, "y": 0.625}, {"type": "position", "time": 48610, "x": null, "y": 0.625}, {"type": "position", "time": 48659, "x": null, "y": 0.625}, {"type": "position", "time": 48709, "x": null, "y": 0.625}, {"type": "position", "time": 48759, "x": null, "y": 0.635}, {"type": "position", "time": 48809, "x": null, "y": 0.6466666666666666}, {"type": "position", "time": 48859, "x": null, "y": 0.625}, {"type": "position", "time": 48909, "x": null, "y": 0.6183333333333333}, {"type": "position", "time": 48959, "x": null, "y": 0.605}, {"type": "position", "time": 49009, "x": null, "y": 0.605}, {"type": "position", "time": 49059, "x": null, "y": 0.5766666666666667}, {"type": "position", "time": 49109, "x": null, "y": 0.5266666666666666}, {"type": "position", "time": 49159, "x": null, "y": 0.48}, {"type": "position", "time": 49209, "x": null, "y": 0.475}, {"type": "position", "time": 49259, "x": null, "y": 0.5366666666666666}, {"type": "position", "time": 49309, "x": null, "y": 0.5783333333333334}, {"type": "position", "time": 49359, "x": null, "y": 0.5783333333333334}, {"type": "position", "time": 49409, "x": null, "y": 0.5783333333333334}, {"type": "position", "time": 49459, "x": null, "y": 0.5783333333333334}, {"type": "position", "time": 49509, "x": null, "y": 0.5783333333333334}, {"type": "position", "time": 49559, "x": null, "y": 0.5783333333333334}, {"type": "position", "time": 49609, "x": null, "y": 0.5783333333333334}, {"type": "position", "time": 49659, "x": null, "y": 0.5783333333333334}, {"type": "position", "time": 49709, "x": null, "y": 0.5783333333333334}, {"type": "position", "time": 49759, "x": null, "y": 0.5783333333333334}, {"type": "position", "time": 49809, "x": null, "y": 0.5783333333333334}, {"type": "position", "time": 49865, "x": null, "y": 0.5783333333333334}, {"type": "position", "time": 49909, "x": null, "y": 0.5783333333333334}, {"type": "position", "time": 49959, "x": null, "y": 0.575}, {"type": "position", "time": 50009, "x": null, "y": 0.5683333333333334}, {"type": "position", "time": 50059, "x": null, "y": 0.5533333333333333}, {"type": "position", "time": 50109, "x": null, "y": 0.5516666666666666}, {"type": "position", "time": 50159, "x": null, "y": 0.5516666666666666}, {"type": "position", "time": 50209, "x": null, "y": 0.5516666666666666}, {"type": "position", "time": 50259, "x": null, "y": 0.5516666666666666}, {"type": "position", "time": 50309, "x": null, "y": 0.5516666666666666}, {"type": "position", "time": 50359, "x": null, "y": 0.555}, {"type": "position", "time": 50409, "x": null, "y": 0.56}, {"type": "position", "time": 50459, "x": null, "y": 0.5616666666666666}, {"type": "position", "time": 50509, "x": null, "y": 0.565}, {"type": "position", "time": 50559, "x": null, "y": 0.565}, {"type": "position", "time": 50609, "x": null, "y": 0.565}, {"type": "position", "time": 50659, "x": null, "y": 0.565}, {"type": "position", "time": 50709, "x": null, "y": 0.565}, {"type": "position", "time": 50759, "x": null, "y": 0.565}, {"type": "position", "time": 50809, "x": null, "y": 0.565}, {"type": "position", "time": 50859, "x": null, "y": 0.565}, {"type": "position", "time": 50909, "x": null, "y": 0.565}, {"type": "position", "time": 50959, "x": null, "y": 0.565}, {"type": "position", "time": 51014, "x": null, "y": 0.5416666666666666}, {"type": "position", "time": 51059, "x": null, "y": 0.5083333333333333}, {"type": "position", "time": 51109, "x": null, "y": 0.5083333333333333}, {"type": "position", "time": 51159, "x": null, "y": 0.5083333333333333}, {"type": "position", "time": 51209, "x": null, "y": 0.5083333333333333}, {"type": "position", "time": 51259, "x": null, "y": 0.5083333333333333}, {"type": "position", "time": 51316, "x": null, "y": 0.5033333333333333}, {"type": "position", "time": 51359, "x": null, "y": 0.5033333333333333}, {"type": "position", "time": 51409, "x": null, "y": 0.5033333333333333}, {"type": "position", "time": 51459, "x": null, "y": 0.505}, {"type": "position", "time": 51509, "x": null, "y": 0.5116666666666667}, {"type": "position", "time": 51559, "x": null, "y": 0.5183333333333333}, {"type": "position", "time": 51609, "x": null, "y": 0.5516666666666666}, {"type": "position", "time": 51659, "x": null, "y": 0.5616666666666666}, {"type": "position", "time": 51709, "x": null, "y": 0.5716666666666667}, {"type": "position", "time": 51759, "x": null, "y": 0.5766666666666667}, {"type": "position", "time": 51809, "x": null, "y": 0.5783333333333334}, {"type": "position", "time": 51859, "x": null, "y": 0.5783333333333334}, {"type": "position", "time": 51909, "x": null, "y": 0.5783333333333334}, {"type": "position", "time": 51959, "x": null, "y": 0.5783333333333334}, {"type": "position", "time": 52009, "x": null, "y": 0.5783333333333334}, {"type": "position", "time": 52059, "x": null, "y": 0.5816666666666667}, {"type": "position", "time": 52109, "x": null, "y": 0.5866666666666667}, {"type": "position", "time": 52159, "x": null, "y": 0.5866666666666667}, {"type": "position", "time": 52209, "x": null, "y": 0.5916666666666667}, {"type": "position", "time": 52259, "x": null, "y": 0.5916666666666667}, {"type": "position", "time": 52309, "x": null, "y": 0.5916666666666667}, {"type": "position", "time": 52359, "x": null, "y": 0.5916666666666667}, {"type": "position", "time": 52409, "x": null, "y": 0.5916666666666667}, {"type": "position", "time": 52459, "x": null, "y": 0.5933333333333334}, {"type": "slider", "time": 52483, "value": 0.33}, {"type": "position", "time": 52509, "x": null, "y": 0.5933333333333334}, {"type": "slider", "time": 52532, "value": 0.32}, {"type": "slider", "time": 52542, "value": 0.31}, {"type": "slider", "time": 52556, "value": 0.3}, {"type": "position", "time": 52559, "x": null, "y": 0.595}, {"type": "slider", "time": 52575, "value": 0.26}, {"type": "slider", "time": 52592, "value": 0.24}, {"type": "slider", "time": 52607, "value": 0.21}, {"type": "position", "time": 52609, "x": null, "y": 0.5833333333333334}, {"type": "slider", "time": 52624, "value": 0.2}, {"type": "slider", "time": 52642, "value": 0.19}, {"type": "slider", "time": 52656, "value": 0.18}, {"type": "position", "time": 52659, "x": null, "y": 0.5833333333333334}, {"type": "position", "time": 52709, "x": null, "y": 0.5833333333333334}, {"type": "position", "time": 52759, "x": null, "y": 0.5833333333333334}, {"type": "position", "time": 52809, "x": null, "y": 0.5833333333333334}, {"type": "click", "time": 52820, "x": null, "y": 0.5833333333333334}, {"type": "position", "time": 52859, "x": null, "y": 0.5833333333333334}, {"type": "position", "time": 52909, "x": null, "y": 0.5833333333333334}, {"type": "position", "time": 52959, "x": null, "y": 0.5833333333333334}, {"type": "position", "time": 53009, "x": null, "y": 0.5833333333333334}, {"type": "position", "time": 53059, "x": null, "y": 0.5833333333333334}, {"type": "position", "time": 53109, "x": null, "y": 0.5833333333333334}, {"type": "position", "time": 53159, "x": null, "y": 0.5833333333333334}, {"type": "position", "time": 53209, "x": null, "y": 0.5916666666666667}, {"type": "position", "time": 53259, "x": null, "y": 0.62}, {"type": "position", "time": 53309, "x": null, "y": 0.6316666666666667}, {"type": "position", "time": 53359, "x": null, "y": 0.6316666666666667}, {"type": "position", "time": 53409, "x": null, "y": 0.6316666666666667}, {"type": "position", "time": 53460, "x": null, "y": 0.6316666666666667}, {"type": "position", "time": 53509, "x": null, "y": 0.6316666666666667}, {"type": "position", "time": 53559, "x": null, "y": 0.6316666666666667}, {"type": "position", "time": 53609, "x": null, "y": 0.6316666666666667}, {"type": "position", "time": 53659, "x": null, "y": 0.6316666666666667}, {"type": "position", "time": 53709, "x": null, "y": 0.6283333333333333}, {"type": "position", "time": 53759, "x": null, "y": 0.68}, {"type": "position", "time": 53809, "x": null, "y": 0.7083333333333334}, {"type": "position", "time": 53859, "x": null, "y": 0.7083333333333334}, {"type": "position", "time": 53909, "x": null, "y": 0.7083333333333334}, {"type": "position", "time": 53959, "x": null, "y": 0.7083333333333334}, {"type": "position", "time": 54009, "x": null, "y": 0.7083333333333334}, {"type": "position", "time": 54059, "x": null, "y": 0.7083333333333334}, {"type": "click", "time": 54066, "x": null, "y": 0.7083333333333334}, {"type": "position", "time": 54109, "x": null, "y": 0.7083333333333334}, {"type": "position", "time": 54159, "x": null, "y": 0.705}, {"type": "position", "time": 54209, "x": null, "y": 0.7016666666666667}, {"type": "position", "time": 54259, "x": null, "y": 0.6983333333333334}, {"type": "position", "time": 54309, "x": null, "y": 0.698333333333