{"ApprovalTime": "2016-03-10T20:50:27Z", "SubmitTime": "2016-03-10T20:47:06Z", "AssignmentId": "3EKVH9QMEY4BMY3JAMCOFGJ6YVY2D1", "HITId": "38G0E1M85M53D7EEUOHN21OJ7HQVU5", "answers": {"data": {"trials": [{"story": "coffee", "time": 9749, "name": "Gabrielle", "rt": 7450, "blocknum": 0, "qtype": "probability", "response": 0.85, "trialnum": 1, "gender": "female", "qnum": 0}, {"story": "coffee", "time": 9749, "name": "Gabrielle", "rt": 7450, "blocknum": 0, "qtype": "ungrammatical", "trialnum": 1, "gender": "female", "qnum": 0}, {"story": "coffee", "time": 20105, "name": "David", "rt": 10349, "blocknum": 0, "qtype": "explanation", "response": "He stayed up too late", "trialnum": 2, "gender": "male", "qnum": 1}, {"story": "coffee", "time": 22615, "name": "David", "rt": 2495, "blocknum": 0, "qtype": "probability", "response": 0.88, "trialnum": 3, "gender": "male", "qnum": 2}, {"story": "coffee", "time": 22615, "name": "David", "rt": 2495, "blocknum": 0, "qtype": "ungrammatical", "trialnum": 3, "gender": "male", "qnum": 2}, {"story": "coffee", "time": 34707, "name": "Eric", "rt": 12081, "blocknum": 0, "qtype": "probability", "response": 0.76, "trialnum": 4, "gender": "male", "qnum": 3}, {"story": "coffee", "time": 34707, "name": "Eric", "rt": 12081, "blocknum": 0, "qtype": "ungrammatical", "response": false, "trialnum": 4, "gender": "male", "qnum": 3}, {"story": "coffee", "time": 41230, "name": "Hunter", "rt": 6511, "blocknum": 0, "qtype": "probability", "response": 0, "trialnum": 5, "gender": "male", "qnum": 4}, {"story": "coffee", "time": 41230, "name": "Hunter", "rt": 6511, "blocknum": 0, "qtype": "ungrammatical", "response": false, "trialnum": 5, "gender": "male", "qnum": 4}, {"story": "coffee", "time": 46460, "name": "Nathan", "rt": 5217, "blocknum": 0, "qtype": "probability", "response": 1, "trialnum": 6, "gender": "male", "qnum": 5}, {"story": "coffee", "time": 46460, "name": "Nathan", "rt": 5217, "blocknum": 0, "qtype": "ungrammatical", "response": false, "trialnum": 6, "gender": "male", "qnum": 5}, {"story": "fitness", "time": 53134, "name": "Kelsey", "rt": 6659, "blocknum": 1, "qtype": "probability", "response": 1, "trialnum": 8, "gender": "female", "qnum": 0}, {"story": "fitness", "time": 53134, "name": "Kelsey", "rt": 6659, "blocknum": 1, "qtype": "ungrammatical", "trialnum": 8, "gender": "female", "qnum": 0}, {"story": "fitness", "time": 61055, "name": "Lauren", "rt": 7918, "blocknum": 1, "qtype": "explanation", "response": "She did not jog enough", "trialnum": 9, "gender": "female", "qnum": 1}, {"story": "fitness", "time": 68132, "name": "Lauren", "rt": 7068, "blocknum": 1, "qtype": "probability", "response": 0.74, "trialnum": 10, "gender": "female", "qnum": 2}, {"story": "fitness", "time": 68132, "name": "Lauren", "rt": 7068, "blocknum": 1, "qtype": "ungrammatical", "trialnum": 10, "gender": "female", "qnum": 2}, {"story": "fitness", "time": 72453, "name": "Jessica", "rt": 4313, "blocknum": 1, "qtype": "probability", "response": 0.79, "trialnum": 11, "gender": "female", "qnum": 3}, {"story": "fitness", "time": 72453, "name": "Jessica", "rt": 4313, "blocknum": 1, "qtype": "ungrammatical", "response": false, "trialnum": 11, "gender": "female", "qnum": 3}, {"story": "fitness", "time": 85110, "name": "John", "rt": 12649, "blocknum": 1, "qtype": "probability", "response": 0.76, "trialnum": 12, "gender": "male", "qnum": 4}, {"story": "fitness", "time": 85110, "name": "John", "rt": 12649, "blocknum": 1, "qtype": "ungrammatical", "response": false, "trialnum": 12, "gender": "male", "qnum": 4}, {"story": "fitness", "time": 98253, "name": "Jenna", "rt": 13136, "blocknum": 1, "qtype": "probability", "response": 0.7, "trialnum": 13, "gender": "female", "qnum": 5}, {"story": "fitness", "time": 98253, "name": "Jenna", "rt": 13136, "blocknum": 1, "qtype": "ungrammatical", "response": false, "trialnum": 13, "gender": "female", "qnum": 5}, {"story": "insomnia", "time": 103290, "name": "Allison", "rt": 5028, "blocknum": 2, "qtype": "probability", "response": 0.78, "trialnum": 15, "gender": "female", "qnum": 0}, {"story": "insomnia", "time": 103290, "name": "Allison", "rt": 5028, "blocknum": 2, "qtype": "ungrammatical", "trialnum": 15, "gender": "female", "qnum": 0}, {"story": "insomnia", "time": 110636, "name": "Patrick", "rt": 7342, "blocknum": 2, "qtype": "explanation", "response": "He didn't worry enough", "trialnum": 16, "gender": "male", "qnum": 1}, {"story": "insomnia", "time": 113390, "name": "Patrick", "rt": 2745, "blocknum": 2, "qtype": "probability", "response": 0.78, "trialnum": 17, "gender": "male", "qnum": 2}, {"story": "insomnia", "time": 113390, "name": "Patrick", "rt": 2745, "blocknum": 2, "qtype": "ungrammatical", "trialnum": 17, "gender": "male", "qnum": 2}, {"story": "insomnia", "time": 116823, "name": "Anna", "rt": 3425, "blocknum": 2, "qtype": "probability", "response": 0.8, "trialnum": 18, "gender": "female", "qnum": 3}, {"story": "insomnia", "time": 116823, "name": "Anna", "rt": 3425, "blocknum": 2, "qtype": "ungrammatical", "response": false, "trialnum": 18, "gender": "female", "qnum": 3}, {"story": "insomnia", "time": 121182, "name": "Luis", "rt": 4353, "blocknum": 2, "qtype": "probability", "response": 0.1, "trialnum": 19, "gender": "male", "qnum": 4}, {"story": "insomnia", "time": 121182, "name": "Luis", "rt": 4353, "blocknum": 2, "qtype": "ungrammatical", "response": false, "trialnum": 19, "gender": "male", "qnum": 4}, {"story": "insomnia", "time": 129007, "name": "Paul", "rt": 7817, "blocknum": 2, "qtype": "probability", "response": 0.34, "trialnum": 20, "gender": "male", "qnum": 5}, {"story": "insomnia", "time": 129007, "name": "Paul", "rt": 7817, "blocknum": 2, "qtype": "ungrammatical", "response": false, "trialnum": 20, "gender": "male", "qnum": 5}, {"story": "guitar", "time": 132027, "name": "Dylan", "rt": 3011, "blocknum": 3, "qtype": "probability", "response": 0.7, "trialnum": 22, "gender": "male", "qnum": 0}, {"story": "guitar", "time": 132027, "name": "Dylan", "rt": 3011, "blocknum": 3, "qtype": "ungrammatical", "trialnum": 22, "gender": "male", "qnum": 0}, {"story": "guitar", "time": 143327, "name": "Megan", "rt": 11296, "blocknum": 3, "qtype": "explanation", "response": "She did not want to write her own songs", "trialnum": 23, "gender": "female", "qnum": 1}, {"story": "guitar", "time": 145962, "name": "Megan", "rt": 2625, "blocknum": 3, "qtype": "probability", "response": 0.66, "trialnum": 24, "gender": "female", "qnum": 2}, {"story": "guitar", "time": 145962, "name": "Megan", "rt": 2625, "blocknum": 3, "qtype": "ungrammatical", "trialnum": 24, "gender": "female", "qnum": 2}, {"story": "guitar", "time": 153023, "name": "Hannah", "rt": 7053, "blocknum": 3, "qtype": "probability", "response": 0.76, "trialnum": 25, "gender": "female", "qnum": 3}, {"story": "guitar", "time": 153023, "name": "Hannah", "rt": 7053, "blocknum": 3, "qtype": "ungrammatical", "response": false, "trialnum": 25, "gender": "female", "qnum": 3}, {"story": "guitar", "time": 160708, "name": "Derek", "rt": 7679, "blocknum": 3, "qtype": "probability", "response": 0.77, "trialnum": 26, "gender": "male", "qnum": 4}, {"story": "guitar", "time": 160708, "name": "Derek", "rt": 7679, "blocknum": 3, "qtype": "ungrammatical", "response": false, "trialnum": 26, "gender": "male", "qnum": 4}, {"story": "guitar", "time": 164842, "name": "Rick", "rt": 4128, "blocknum": 3, "qtype": "probability", "response": 0.78, "trialnum": 27, "gender": "male", "qnum": 5}, {"story": "guitar", "time": 164842, "name": "Rick", "rt": 4128, "blocknum": 3, "qtype": "ungrammatical", "response": false, "trialnum": 27, "gender": "male", "qnum": 5}, {"story": "Japan", "time": 169742, "name": "Victoria", "rt": 4891, "blocknum": 4, "qtype": "probability", "response": 0.73, "trialnum": 29, "gender": "female", "qnum": 0}, {"story": "Japan", "time": 169742, "name": "Victoria", "rt": 4891, "blocknum": 4, "qtype": "ungrammatical", "trialnum": 29, "gender": "female", "qnum": 0}, {"story": "Japan", "time": 179070, "name": "Brooke", "rt": 9325, "blocknum": 4, "qtype": "explanation", "response": "She is still around Americans", "trialnum": 30, "gender": "female", "qnum": 1}, {"story": "Japan", "time": 184385, "name": "Brooke", "rt": 5306, "blocknum": 4, "qtype": "probability", "response": 0.75, "trialnum": 31, "gender": "female", "qnum": 2}, {"story": "Japan", "time": 184385, "name": "Brooke", "rt": 5306, "blocknum": 4, "qtype": "ungrammatical", "trialnum": 31, "gender": "female", "qnum": 2}, {"story": "Japan", "time": 187934, "name": "Brian", "rt": 3542, "blocknum": 4, "qtype": "probability", "response": 0.76, "trialnum": 32, "gender": "male", "qnum": 3}, {"story": "Japan", "time": 187934, "name": "Brian", "rt": 3542, "blocknum": 4, "qtype": "ungrammatical", "response": false, "trialnum": 32, "gender": "male", "qnum": 3}, {"story": "Japan", "time": 192888, "name": "Jordan", "rt": 4947, "blocknum": 4, "qtype": "probability", "response": 0.73, "trialnum": 33, "gender": "male", "qnum": 4}, {"story": "Japan", "time": 192888, "name": "Jordan", "rt": 4947, "blocknum": 4, "qtype": "ungrammatical", "response": false, "trialnum": 33, "gender": "male", "qnum": 4}, {"story": "Japan", "time": 194700, "name": "Dustin", "rt": 1804, "blocknum": 4, "qtype": "probability", "response": 0.8, "trialnum": 34, "gender": "male", "qnum": 5}, {"story": "Japan", "time": 194700, "name": "Dustin", "rt": 1804, "blocknum": 4, "qtype": "ungrammatical", "response": false, "trialnum": 34, "gender": "male", "qnum": 5}, {"story": "painting", "time": 200206, "name": "Connor", "rt": 5496, "blocknum": 5, "qtype": "probability", "response": 1, "trialnum": 36, "gender": "male", "qnum": 0}, {"story": "painting", "time": 200206, "name": "Connor", "rt": 5496, "blocknum": 5, "qtype": "ungrammatical", "trialnum": 36, "gender": "male", "qnum": 0}, {"story": "painting", "time": 206688, "name": "Jose", "rt": 6479, "blocknum": 5, "qtype": "explanation", "response": "he did not paint enough", "trialnum": 37, "gender": "male", "qnum": 1}, {"story": "painting", "time": 210442, "name": "Jose", "rt": 3747, "blocknum": 5, "qtype": "probability", "response": 1, "trialnum": 38, "gender": "male", "qnum": 2}, {"story": "painting", "time": 210442, "name": "Jose", "rt": 3747, "blocknum": 5, "qtype": "ungrammatical", "trialnum": 38, "gender": "male", "qnum": 2}, {"story": "painting", "time": 214328, "name": "Paige", "rt": 3880, "blocknum": 5, "qtype": "probability", "response": 1, "trialnum": 39, "gender": "female", "qnum": 3}, {"story": "painting", "time": 214328, "name": "Paige", "rt": 3880, "blocknum": 5, "qtype": "ungrammatical", "response": false, "trialnum": 39, "gender": "female", "qnum": 3}, {"story": "painting", "time": 218197, "name": "Thomas", "rt": 3859, "blocknum": 5, "qtype": "probability", "response": 0.84, "trialnum": 40, "gender": "male", "qnum": 4}, {"story": "painting", "time": 218197, "name": "Thomas", "rt": 3859, "blocknum": 5, "qtype": "ungrammatical", "response": false, "trialnum": 40, "gender": "male", "qnum": 4}, {"story": "painting", "time": 223298, "name": "Alexandra", "rt": 5094, "blocknum": 5, "qtype": "probability", "response": 0.51, "trialnum": 41, "gender": "female", "qnum": 5}, {"story": "painting", "time": 223298, "name": "Alexandra", "rt": 5094, "blocknum": 5, "qtype": "ungrammatical", "response": false, "trialnum": 41, "gender": "female", "qnum": 5}, {"story": "reading", "time": 229178, "name": "Amy", "rt": 5871, "blocknum": 6, "qtype": "probability", "response": 0.6, "trialnum": 43, "gender": "female", "qnum": 0}, {"story": "reading", "time": 229178, "name": "Amy", "rt": 5871, "blocknum": 6, "qtype": "ungrammatical", "trialnum": 43, "gender": "female", "qnum": 0}, {"story": "reading", "time": 234525, "name": "Nicole", "rt": 5344, "blocknum": 6, "qtype": "explanation", "response": "she did not read enough", "trialnum": 44, "gender": "female", "qnum": 1}, {"story": "reading", "time": 237719, "name": "Nicole", "rt": 3186, "blocknum": 6, "qtype": "probability", "response": 0.63, "trialnum": 45, "gender": "female", "qnum": 2}, {"story": "reading", "time": 237719, "name": "Nicole", "rt": 3186, "blocknum": 6, "qtype": "ungrammatical", "trialnum": 45, "gender": "female", "qnum": 2}, {"story": "reading", "time": 241221, "name": "Matthew", "rt": 3494, "blocknum": 6, "qtype": "probability", "response": 0.65, "trialnum": 46, "gender": "male", "qnum": 3}, {"story": "reading", "time": 241221, "name": "Matthew", "rt": 3494, "blocknum": 6, "qtype": "ungrammatical", "response": false, "trialnum": 46, "gender": "male", "qnum": 3}, {"story": "reading", "time": 245944, "name": "Vanessa", "rt": 4717, "blocknum": 6, "qtype": "probability", "response": 0.42, "trialnum": 47, "gender": "female", "qnum": 4}, {"story": "reading", "time": 245944, "name": "Vanessa", "rt": 4717, "blocknum": 6, "qtype": "ungrammatical", "response": false, "trialnum": 47, "gender": "female", "qnum": 4}, {"story": "reading", "time": 249702, "name": "Savannah", "rt": 3752, "blocknum": 6, "qtype": "probability", "response": 0.31, "trialnum": 48, "gender": "female", "qnum": 5}, {"story": "reading", "time": 249702, "name": "Savannah", "rt": 3752, "blocknum": 6, "qtype": "ungrammatical", "response": false, "trialnum": 48, "gender": "female", "qnum": 5}, {"story": "beach", "time": 253156, "name": "James", "rt": 3442, "blocknum": 7, "qtype": "probability", "response": 0.92, "trialnum": 50, "gender": "male", "qnum": 0}, {"story": "beach", "time": 253156, "name": "James", "rt": 3442, "blocknum": 7, "qtype": "ungrammatical", "trialnum": 50, "gender": "male", "qnum": 0}, {"story": "beach", "time": 260709, "name": "Emma", "rt": 7550, "blocknum": 7, "qtype": "explanation", "response": "No one was surfing", "trialnum": 51, "gender": "female", "qnum": 1}, {"story": "beach", "time": 264090, "name": "Emma", "rt": 3375, "blocknum": 7, "qtype": "probability", "response": 0.79, "trialnum": 52, "gender": "female", "qnum": 2}, {"story": "beach", "time": 264090, "name": "Emma", "rt": 3375, "blocknum": 7, "qtype": "ungrammatical", "trialnum": 52, "gender": "female", "qnum": 2}, {"story": "beach", "time": 266876, "name": "Erica", "rt": 2778, "blocknum": 7, "qtype": "probability", "response": 0.76, "trialnum": 53, "gender": "female", "qnum": 3}, {"story": "beach", "time": 266876, "name": "Erica", "rt": 2778, "blocknum": 7, "qtype": "ungrammatical", "response": false, "trialnum": 53, "gender": "female", "qnum": 3}, {"story": "beach", "time": 269051, "name": "Katherine", "rt": 2169, "blocknum": 7, "qtype": "probability", "response": 0.82, "trialnum": 54, "gender": "female", "qnum": 4}, {"story": "beach", "time": 269051, "name": "Katherine", "rt": 2169, "blocknum": 7, "qtype": "ungrammatical", "response": false, "trialnum": 54, "gender": "female", "qnum": 4}, {"story": "beach", "time": 270898, "name": "Michelle", "rt": 1840, "blocknum": 7, "qtype": "probability", "response": 0.81, "trialnum": 55, "gender": "female", "qnum": 5}, {"story": "beach", "time": 270898, "name": "Michelle", "rt": 1840, "blocknum": 7, "qtype": "ungrammatical", "response": false, "trialnum": 55, "gender": "female", "qnum": 5}, {"story": "cooking", "time": 274584, "name": "Kaitlyn", "rt": 3674, "blocknum": 8, "qtype": "probability", "response": 0.65, "trialnum": 57, "gender": "female", "qnum": 0}, {"story": "cooking", "time": 274584, "name": "Kaitlyn", "rt": 3674, "blocknum": 8, "qtype": "ungrammatical", "trialnum": 57, "gender": "female", "qnum": 0}, {"story": "cooking", "time": 281966, "name": "Amber", "rt": 7379, "blocknum": 8, "qtype": "explanation", "response": "she did not talk to anyone", "trialnum": 58, "gender": "female", "qnum": 1}, {"story": "cooking", "time": 283899, "name": "Amber", "rt": 1927, "blocknum": 8, "qtype": "probability", "response": 0.79, "trialnum": 59, "gender": "female", "qnum": 2}, {"story": "cooking", "time": 283899, "name": "Amber", "rt": 1927, "blocknum": 8, "qtype": "ungrammatical", "trialnum": 59, "gender": "female", "qnum": 2}, {"story": "cooking", "time": 287556, "name": "Cassandra", "rt": 3651, "blocknum": 8, "qtype": "probability", "response": 0.69, "trialnum": 60, "gender": "female", "qnum": 3}, {"story": "cooking", "time": 287556, "name": "Cassandra", "rt": 3651, "blocknum": 8, "qtype": "ungrammatical", "response": false, "trialnum": 60, "gender": "female", "qnum": 3}, {"story": "cooking", "time": 289146, "name": "Morgan", "rt": 1581, "blocknum": 8, "qtype": "probability", "response": 0.74, "trialnum": 61, "gender": "female", "qnum": 4}, {"story": "cooking", "time": 289146, "name": "Morgan", "rt": 1581, "blocknum": 8, "qtype": "ungrammatical", "response": false, "trialnum": 61, "gender": "female", "qnum": 4}, {"story": "cooking", "time": 291720, "name": "Natalie", "rt": 2568, "blocknum": 8, "qtype": "probability", "response": 0.77, "trialnum": 62, "gender": "female", "qnum": 5}, {"story": "cooking", "time": 291720, "name": "Natalie", "rt": 2568, "blocknum": 8, "qtype": "ungrammatical", "response": false, "trialnum": 62, "gender": "female", "qnum": 5}], "events": [{"type": "position", "time": 68, "x": null, "y": 0.205}, {"type": "position", "time": 117, "x": null, "y": 0.205}, {"type": "position", "time": 167, "x": null, "y": 0.205}, {"type": "position", "time": 334, "x": null, "y": 0.205}, {"type": "position", "time": 368, "x": null, "y": 0.205}, {"type": "position", "time": 418, "x": null, "y": 0.205}, {"type": "position", "time": 468, "x": null, "y": 0.205}, {"type": "position", "time": 518, "x": null, "y": 0.205}, {"type": "position", "time": 568, "x": null, "y": 0.205}, {"type": "position", "time": 618, "x": null, "y": 0.205}, {"type": "position", "time": 668, "x": null, "y": 0.205}, {"type": "position", "time": 718, "x": null, "y": 0.22333333333333333}, {"type": "position", "time": 767, "x": null, "y": 0.30333333333333334}, {"type": "position", "time": 817, "x": null, "y": 0.37833333333333335}, {"type": "position", "time": 867, "x": null, "y": 0.4033333333333333}, {"type": "position", "time": 918, "x": null, "y": 0.41833333333333333}, {"type": "position", "time": 969, "x": null, "y": 0.44333333333333336}, {"type": "position", "time": 1019, "x": null, "y": 0.4666666666666667}, {"type": "position", "time": 1068, "x": null, "y": 0.4766666666666667}, {"type": "position", "time": 1118, "x": null, "y": 0.4766666666666667}, {"type": "position", "time": 1169, "x": null, "y": 0.4766666666666667}, {"type": "position", "time": 1218, "x": null, "y": 0.4766666666666667}, {"type": "position", "time": 1296, "x": null, "y": 0.4766666666666667}, {"type": "position", "time": 1318, "x": null, "y": 0.4766666666666667}, {"type": "position", "time": 1368, "x": null, "y": 0.4766666666666667}, {"type": "position", "time": 1418, "x": null, "y": 0.475}, {"type": "position", "time": 1468, "x": null, "y": 0.475}, {"type": "position", "time": 1518, "x": null, "y": 0.475}, {"type": "position", "time": 1568, "x": null, "y": 0.475}, {"type": "position", "time": 1618, "x": null, "y": 0.475}, {"type": "click", "time": 2299, "x": null, "y": 0.475}, {"type": "position", "time": 2311, "x": null, "y": 0.475}, {"type": "position", "time": 2319, "x": null, "y": 0.475}, {"type": "position", "time": 2368, "x": null, "y": 0.475}, {"type": "position", "time": 2418, "x": null, "y": 0.475}, {"type": "position", "time": 2467, "x": null, "y": 0.475}, {"type": "position", "time": 2517, "x": null, "y": 0.475}, {"type": "position", "time": 2567, "x": null, "y": 0.475}, {"type": "position", "time": 2619, "x": null, "y": 0.475}, {"type": "position", "time": 2668, "x": null, "y": 0.475}, {"type": "position", "time": 2718, "x": null, "y": 0.475}, {"type": "position", "time": 2768, "x": null, "y": 0.475}, {"type": "position", "time": 2819, "x": null, "y": 0.475}, {"type": "position", "time": 2868, "x": null, "y": 0.475}, {"type": "position", "time": 2919, "x": null, "y": 0.475}, {"type": "position", "time": 2968, "x": null, "y": 0.475}, {"type": "position", "time": 3018, "x": null, "y": 0.475}, {"type": "position", "time": 3068, "x": null, "y": 0.475}, {"type": "position", "time": 3117, "x": null, "y": 0.475}, {"type": "position", "time": 3167, "x": null, "y": 0.475}, {"type": "position", "time": 3218, "x": null, "y": 0.475}, {"type": "position", "time": 3269, "x": null, "y": 0.455}, {"type": "position", "time": 3322, "x": null, "y": 0.40166666666666667}, {"type": "position", "time": 3368, "x": null, "y": 0.3516666666666667}, {"type": "position", "time": 3419, "x": null, "y": 0.3016666666666667}, {"type": "position", "time": 3468, "x": null, "y": 0.265}, {"type": "position", "time": 3519, "x": null, "y": 0.29}, {"type": "position", "time": 3568, "x": null, "y": 0.29833333333333334}, {"type": "position", "time": 3618, "x": null, "y": 0.29833333333333334}, {"type": "position", "time": 3668, "x": null, "y": 0.29833333333333334}, {"type": "position", "time": 3719, "x": null, "y": 0.29833333333333334}, {"type": "position", "time": 3768, "x": null, "y": 0.29833333333333334}, {"type": "position", "time": 3820, "x": null, "y": 0.25666666666666665}, {"type": "position", "time": 3872, "x": null, "y": 0.22}, {"type": "position", "time": 3918, "x": null, "y": 0.22}, {"type": "position", "time": 3968, "x": null, "y": 0.22}, {"type": "position", "time": 4018, "x": null, "y": 0.22}, {"type": "position", "time": 4068, "x": null, "y": 0.22}, {"type": "position", "time": 4118, "x": null, "y": 0.22}, {"type": "position", "time": 4168, "x": null, "y": 0.22}, {"type": "position", "time": 4218, "x": null, "y": 0.22}, {"type": "position", "time": 4268, "x": null, "y": 0.22}, {"type": "position", "time": 4325, "x": null, "y": 0.22}, {"type": "position", "time": 4368, "x": null, "y": 0.22}, {"type": "position", "time": 4418, "x": null, "y": 0.22}, {"type": "position", "time": 4471, "x": null, "y": 0.22}, {"type": "position", "time": 4525, "x": null, "y": 0.22}, {"type": "position", "time": 4576, "x": null, "y": 0.22}, {"type": "position", "time": 4625, "x": null, "y": 0.22}, {"type": "position", "time": 4668, "x": null, "y": 0.22}, {"type": "position", "time": 4718, "x": null, "y": 0.22}, {"type": "position", "time": 4768, "x": null, "y": 0.22}, {"type": "position", "time": 4817, "x": null, "y": 0.22}, {"type": "position", "time": 4871, "x": null, "y": 0.5716666666666667}, {"type": "position", "time": 4919, "x": null, "y": 0.5083333333333333}, {"type": "position", "time": 4968, "x": null, "y": 0.4866666666666667}, {"type": "position", "time": 5019, "x": null, "y": 0.4816666666666667}, {"type": "position", "time": 5068, "x": null, "y": 0.47}, {"type": "position", "time": 5118, "x": null, "y": 0.47}, {"type": "position", "time": 5168, "x": null, "y": 0.47}, {"type": "position", "time": 5218, "x": null, "y": 0.47}, {"type": "position", "time": 5269, "x": null, "y": 0.47}, {"type": "position", "time": 5318, "x": null, "y": 0.47}, {"type": "position", "time": 5368, "x": null, "y": 0.47}, {"type": "position", "time": 5418, "x": null, "y": 0.47}, {"type": "position", "time": 5468, "x": null, "y": 0.47}, {"type": "position", "time": 5517, "x": null, "y": 0.47}, {"type": "position", "time": 5567, "x": null, "y": 0.47}, {"type": "position", "time": 5618, "x": null, "y": 0.47}, {"type": "position", "time": 5668, "x": null, "y": 0.47}, {"type": "position", "time": 5718, "x": null, "y": 0.47}, {"type": "position", "time": 5769, "x": null, "y": 0.47}, {"type": "position", "time": 5818, "x": null, "y": 0.47}, {"type": "position", "time": 5868, "x": null, "y": 0.47}, {"type": "position", "time": 5918, "x": null, "y": 0.47}, {"type": "position", "time": 5968, "x": null, "y": 0.47}, {"type": "position", "time": 6018, "x": null, "y": 0.47}, {"type": "position", "time": 6068, "x": null, "y": 0.47}, {"type": "position", "time": 6118, "x": null, "y": 0.47}, {"type": "position", "time": 6167, "x": null, "y": 0.47}, {"type": "position", "time": 6217, "x": null, "y": 0.47}, {"type": "position", "time": 6268, "x": null, "y": 0.47}, {"type": "position", "time": 6320, "x": null, "y": 0.47}, {"type": "position", "time": 6368, "x": null, "y": 0.47}, {"type": "position", "time": 6418, "x": null, "y": 0.47}, {"type": "position", "time": 6468, "x": null, "y": 0.47}, {"type": "position", "time": 6518, "x": null, "y": 0.47}, {"type": "position", "time": 6568, "x": null, "y": 0.47}, {"type": "position", "time": 6618, "x": null, "y": 0.47}, {"type": "position", "time": 6668, "x": null, "y": 0.47}, {"type": "position", "time": 6718, "x": null, "y": 0.47}, {"type": "position", "time": 6768, "x": null, "y": 0.47}, {"type": "position", "time": 6818, "x": null, "y": 0.47}, {"type": "position", "time": 6867, "x": null, "y": 0.47}, {"type": "position", "time": 6917, "x": null, "y": 0.47}, {"type": "position", "time": 6968, "x": null, "y": 0.47}, {"type": "position", "time": 7018, "x": null, "y": 0.47}, {"type": "position", "time": 7068, "x": null, "y": 0.47}, {"type": "position", "time": 7118, "x": null, "y": 0.47}, {"type": "position", "time": 7168, "x": null, "y": 0.47}, {"type": "position", "time": 7218, "x": null, "y": 0.47}, {"type": "position", "time": 7268, "x": null, "y": 0.47}, {"type": "position", "time": 7319, "x": null, "y": 0.47}, {"type": "position", "time": 7368, "x": null, "y": 0.47}, {"type": "position", "time": 7418, "x": null, "y": 0.47}, {"type": "position", "time": 7468, "x": null, "y": 0.47}, {"type": "position", "time": 7518, "x": null, "y": 0.47}, {"type": "position", "time": 7568, "x": null, "y": 0.4716666666666667}, {"type": "position", "time": 7619, "x": null, "y": 0.47}, {"type": "position", "time": 7668, "x": null, "y": 0.4766666666666667}, {"type": "position", "time": 7718, "x": null, "y": 0.4683333333333333}, {"type": "position", "time": 7768, "x": null, "y": 0.47333333333333333}, {"type": "position", "time": 7818, "x": null, "y": 0.4816666666666667}, {"type": "position", "time": 7868, "x": null, "y": 0.4816666666666667}, {"type": "position", "time": 7918, "x": null, "y": 0.4816666666666667}, {"type": "position", "time": 7968, "x": null, "y": 0.4816666666666667}, {"type": "position", "time": 8018, "x": null, "y": 0.4816666666666667}, {"type": "position", "time": 8068, "x": null, "y": 0.4816666666666667}, {"type": "position", "time": 8117, "x": null, "y": 0.4816666666666667}, {"type": "position", "time": 8167, "x": null, "y": 0.48833333333333334}, {"type": "position", "time": 8219, "x": null, "y": 0.5016666666666667}, {"type": "position", "time": 8268, "x": null, "y": 0.5083333333333333}, {"type": "position", "time": 8321, "x": null, "y": 0.515}, {"type": "position", "time": 8368, "x": null, "y": 0.52}, {"type": "position", "time": 8418, "x": null, "y": 0.5283333333333333}, {"type": "position", "time": 8468, "x": null, "y": 0.5383333333333333}, {"type": "position", "time": 8518, "x": null, "y": 0.5383333333333333}, {"type": "position", "time": 8568, "x": null, "y": 0.5383333333333333}, {"type": "position", "time": 8618, "x": null, "y": 0.5383333333333333}, {"type": "position", "time": 8668, "x": null, "y": 0.535}, {"type": "position", "time": 8718, "x": null, "y": 0.535}, {"type": "position", "time": 8768, "x": null, "y": 0.5333333333333333}, {"type": "position", "time": 8817, "x": null, "y": 0.5333333333333333}, {"type": "position", "time": 8868, "x": null, "y": 0.5333333333333333}, {"type": "position", "time": 8918, "x": null, "y": 0.5333333333333333}, {"type": "position", "time": 8968, "x": null, "y": 0.5333333333333333}, {"type": "position", "time": 9018, "x": null, "y": 0.5333333333333333}, {"type": "slider", "time": 9076, "value": 0.85}, {"type": "position", "time": 9080, "x": null, "y": 0.5333333333333333}, {"type": "position", "time": 9118, "x": null, "y": 0.5333333333333333}, {"type": "click", "time": 9191, "x": null, "y": 0.5333333333333333}, {"type": "position", "time": 9198, "x": null, "y": 0.5333333333333333}, {"type": "position", "time": 9218, "x": null, "y": 0.5333333333333333}, {"type": "position", "time": 9268, "x": null, "y": 0.5333333333333333}, {"type": "position", "time": 9320, "x": null, "y": 0.5416666666666666}, {"type": "position", "time": 9368, "x": null, "y": 0.5733333333333334}, {"type": "position", "time": 9418, "x": null, "y": 0.5933333333333334}, {"type": "position", "time": 9468, "x": null, "y": 0.5966666666666667}, {"type": "position", "time": 9518, "x": null, "y": 0.605}, {"type": "position", "time": 9569, "x": null, "y": 0.6116666666666667}, {"type": "position", "time": 9618, "x": null, "y": 0.62}, {"type": "position", "time": 9669, "x": null, "y": 0.625}, {"type": "position", "time": 9718, "x": null, "y": 0.625}, {"type": "click", "time": 9757, "x": null, "y": 0.625}, {"type": "position", "time": 9768, "x": null, "y": 0.625}, {"type": "position", "time": 9818, "x": null, "y": 0.625}, {"type": "position", "time": 9868, "x": null, "y": 0.625}, {"type": "position", "time": 9918, "x": null, "y": 0.625}, {"type": "position", "time": 9968, "x": null, "y": 0.625}, {"type": "position", "time": 10018, "x": null, "y": 0.625}, {"type": "position", "time": 10068, "x": null, "y": 0.625}, {"type": "position", "time": 10118, "x": null, "y": 0.625}, {"type": "position", "time": 10167, "x": null, "y": 0.625}, {"type": "position", "time": 10238, "x": null, "y": 0.625}, {"type": "position", "time": 10268, "x": null, "y": 0.625}, {"type": "position", "time": 10320, "x": null, "y": 0.625}, {"type": "position", "time": 10368, "x": null, "y": 0.625}, {"type": "position", "time": 10418, "x": null, "y": 0.625}, {"type": "position", "time": 10468, "x": null, "y": 0.625}, {"type": "position", "time": 10518, "x": null, "y": 0.625}, {"type": "position", "time": 10568, "x": null, "y": 0.625}, {"type": "position", "time": 10618, "x": null, "y": 0.625}, {"type": "position", "time": 10672, "x": null, "y": 0.6}, {"type": "position", "time": 10718, "x": null, "y": 0.5883333333333334}, {"type": "position", "time": 10768, "x": null, "y": 0.5883333333333334}, {"type": "position", "time": 10818, "x": null, "y": 0.5733333333333334}, {"type": "position", "time": 10868, "x": null, "y": 0.5616666666666666}, {"type": "position", "time": 10918, "x": null, "y": 0.5483333333333333}, {"type": "position", "time": 10968, "x": null, "y": 0.5333333333333333}, {"type": "position", "time": 11022, "x": null, "y": 0.525}, {"type": "position", "time": 11070, "x": null, "y": 0.5166666666666667}, {"type": "position", "time": 11118, "x": null, "y": 0.5066666666666667}, {"type": "position", "time": 11232, "x": null, "y": 0.5033333333333333}, {"type": "position", "time": 11268, "x": null, "y": 0.49666666666666665}, {"type": "position", "time": 11318, "x": null, "y": 0.49666666666666665}, {"type": "position", "time": 11368, "x": null, "y": 0.49666666666666665}, {"type": "position", "time": 11418, "x": null, "y": 0.49666666666666665}, {"type": "position", "time": 11468, "x": null, "y": 0.49666666666666665}, {"type": "position", "time": 11518, "x": null, "y": 0.49833333333333335}, {"type": "position", "time": 11569, "x": null, "y": 0.5016666666666667}, {"type": "position", "time": 11618, "x": null, "y": 0.5033333333333333}, {"type": "position", "time": 11669, "x": null, "y": 0.5033333333333333}, {"type": "position", "time": 11718, "x": null, "y": 0.5033333333333333}, {"type": "position", "time": 11768, "x": null, "y": 0.5033333333333333}, {"type": "position", "time": 11822, "x": null, "y": 0.5033333333333333}, {"type": "position", "time": 11869, "x": null, "y": 0.5033333333333333}, {"type": "position", "time": 11918, "x": null, "y": 0.5033333333333333}, {"type": "position", "time": 11968, "x": null, "y": 0.5033333333333333}, {"type": "position", "time": 12022, "x": null, "y": 0.5033333333333333}, {"type": "position", "time": 12068, "x": null, "y": 0.5033333333333333}, {"type": "position", "time": 12118, "x": null, "y": 0.5016666666666667}, {"type": "position", "time": 12230, "x": null, "y": 0.49833333333333335}, {"type": "position", "time": 12268, "x": null, "y": 0.495}, {"type": "position", "time": 12319, "x": null, "y": 0.495}, {"type": "position", "time": 12368, "x": null, "y": 0.49833333333333335}, {"type": "position", "time": 12422, "x": null, "y": 0.5033333333333333}, {"type": "position", "time": 12468, "x": null, "y": 0.505}, {"type": "position", "time": 12518, "x": null, "y": 0.505}, {"type": "position", "time": 12568, "x": null, "y": 0.505}, {"type": "position", "time": 12618, "x": null, "y": 0.505}, {"type": "position", "time": 12668, "x": null, "y": 0.505}, {"type": "position", "time": 12718, "x": null, "y": 0.505}, {"type": "position", "time": 12768, "x": null, "y": 0.505}, {"type": "position", "time": 12818, "x": null, "y": 0.505}, {"type": "position", "time": 12868, "x": null, "y": 0.505}, {"type": "position", "time": 12918, "x": null, "y": 0.505}, {"type": "position", "time": 12968, "x": null, "y": 0.505}, {"type": "position", "time": 13018, "x": null, "y": 0.505}, {"type": "position", "time": 13068, "x": null, "y": 0.505}, {"type": "position", "time": 13118, "x": null, "y": 0.505}, {"type": "position", "time": 13201, "x": null, "y": 0.505}, {"type": "position", "time": 13218, "x": null, "y": 0.505}, {"type": "position", "time": 13268, "x": null, "y": 0.505}, {"type": "position", "time": 13322, "x": null, "y": 0.505}, {"type": "position", "time": 13368, "x": null, "y": 0.505}, {"type": "position", "time": 13418, "x": null, "y": 0.505}, {"type": "position", "time": 13468, "x": null, "y": 0.505}, {"type": "position", "time": 13519, "x": null, "y": 0.505}, {"type": "position", "time": 13568, "x": null, "y": 0.505}, {"type": "position", "time": 13618, "x": null, "y": 0.505}, {"type": "position", "time": 13668, "x": null, "y": 0.505}, {"type": "position", "time": 13718, "x": null, "y": 0.505}, {"type": "position", "time": 13768, "x": null, "y": 0.505}, {"type": "position", "time": 13819, "x": null, "y": 0.505}, {"type": "position", "time": 13868, "x": null, "y": 0.505}, {"type": "position", "time": 13918, "x": null, "y": 0.505}, {"type": "position", "time": 13968, "x": null, "y": 0.505}, {"type": "position", "time": 14018, "x": null, "y": 0.505}, {"type": "position", "time": 14068, "x": null, "y": 0.505}, {"type": "position", "time": 14141, "x": null, "y": 0.505}, {"type": "position", "time": 14168, "x": null, "y": 0.505}, {"type": "position", "time": 14218, "x": null, "y": 0.505}, {"type": "position", "time": 14268, "x": null, "y": 0.505}, {"type": "position", "time": 14319, "x": null, "y": 0.505}, {"type": "position", "time": 14368, "x": null, "y": 0.505}, {"type": "position", "time": 14418, "x": null, "y": 0.505}, {"type": "position", "time": 14468, "x": null, "y": 0.505}, {"type": "position", "time": 14519, "x": null, "y": 0.505}, {"type": "position", "time": 14568, "x": null, "y": 0.505}, {"type": "position", "time": 14618, "x": null, "y": 0.505}, {"type": "click", "time": 15202, "x": null, "y": 0.505}, {"type": "position", "time": 15207, "x": null, "y": 0.505}, {"type": "position", "time": 15218, "x": null, "y": 0.505}, {"type": "position", "time": 15268, "x": null, "y": 0.505}, {"type": "position", "time": 15320, "x": null, "y": 0.505}, {"type": "position", "time": 15368, "x": null, "y": 0.505}, {"type": "position", "time": 15418, "x": null, "y": 0.505}, {"type": "position", "time": 15468, "x": null, "y": 0.505}, {"type": "position", "time": 15518, "x": null, "y": 0.505}, {"type": "position", "time": 15568, "x": null, "y": 0.505}, {"type": "position", "time": 15618, "x": null, "y": 0.505}, {"type": "position", "time": 15668, "x": null, "y": 0.505}, {"type": "position", "time": 15718, "x": null, "y": 0.505}, {"type": "position", "time": 15769, "x": null, "y": 0.505}, {"type": "position", "time": 15818, "x": null, "y": 0.505}, {"type": "position", "time": 15868, "x": null, "y": 0.505}, {"type": "position", "time": 15918, "x": null, "y": 0.505}, {"type": "position", "time": 15968, "x": null, "y": 0.505}, {"type": "position", "time": 16018, "x": null, "y": 0.505}, {"type": "position", "time": 16068, "x": null, "y": 0.505}, {"type": "position", "time": 16118, "x": null, "y": 0.505}, {"type": "position", "time": 16168, "x": null, "y": 0.505}, {"type": "position", "time": 16219, "x": null, "y": 0.505}, {"type": "position", "time": 16268, "x": null, "y": 0.505}, {"type": "position", "time": 16319, "x": null, "y": 0.505}, {"type": "position", "time": 16368, "x": null, "y": 0.505}, {"type": "position", "time": 16418, "x": null, "y": 0.505}, {"type": "position", "time": 16468, "x": null, "y": 0.505}, {"type": "position", "time": 16518, "x": null, "y": 0.505}, {"type": "position", "time": 16568, "x": null, "y": 0.505}, {"type": "position", "time": 16618, "x": null, "y": 0.505}, {"type": "position", "time": 16668, "x": null, "y": 0.505}, {"type": "position", "time": 16718, "x": null, "y": 0.505}, {"type": "position", "time": 16769, "x": null, "y": 0.505}, {"type": "position", "time": 16818, "x": null, "y": 0.505}, {"type": "keyup", "time": 16820, "key": "\u0010", "keyCode": 16}, {"type": "position", "time": 16868, "x": null, "y": 0.505}, {"type": "keyup", "time": 16874, "key": "H", "keyCode": 72}, {"type": "position", "time": 16918, "x": null, "y": 0.505}, {"type": "position", "time": 16968, "x": null, "y": 0.505}, {"type": "keyup", "time": 16972, "key": "E", "keyCode": 69}, {"type": "position", "time": 17018, "x": null, "y": 0.505}, {"type": "position", "time": 17068, "x": null, "y": 0.505}, {"type": "keyup", "time": 17091, "key": " ", "keyCode": 32}, {"type": "position", "time": 17118, "x": null, "y": 0.505}, {"type": "position", "time": 17168, "x": null, "y": 0.505}, {"type": "position", "time": 17218, "x": null, "y": 0.505}, {"type": "keyup", "time": 17233, "key": "S", "keyCode": 83}, {"type": "position", "time": 17268, "x": null, "y": 0.505}, {"type": "position", "time": 17318, "x": null, "y": 0.505}, {"type": "position", "time": 17368, "x": null, "y": 0.505}, {"type": "position", "time": 17418, "x": null, "y": 0.505}, {"type": "keyup", "time": 17461, "key": "T", "keyCode": 84}, {"type": "position", "time": 17468, "x": null, "y": 0.505}, {"type": "position", "time": 17518, "x": null, "y": 0.505}, {"type": "keyup", "time": 17548, "key": "A", "keyCode": 65}, {"type": "position", "time": 17568, "x": null, "y": 0.505}, {"type": "position", "time": 17618, "x": null, "y": 0.505}, {"type": "position", "time": 17668, "x": null, "y": 0.505}, {"type": "keyup", "time": 17674, "key": "Y", "keyCode": 89}, {"type": "keyup", "time": 17702, "key": "E", "keyCode": 69}, {"type": "position", "time": 17718, "x": null, "y": 0.505}, {"type": "position", "time": 17769, "x": null, "y": 0.505}, {"type": "position", "time": 17819, "x": null, "y": 0.505}, {"type": "position", "time": 17868, "x": null, "y": 0.505}, {"type": "position", "time": 17918, "x": null, "y": 0.505}, {"type": "keyup", "time": 17921, "key": "D", "keyCode": 68}, {"type": "position", "time": 17968, "x": null, "y": 0.505}, {"type": "position", "time": 18018, "x": null, "y": 0.505}, {"type": "keyup", "time": 18024, "key": " ", "keyCode": 32}, {"type": "position", "time": 18068, "x": null, "y": 0.505}, {"type": "position", "time": 18118, "x": null, "y": 0.505}, {"type": "position", "time": 18168, "x": null, "y": 0.505}, {"type": "position", "time": 18218, "x": null, "y": 0.505}, {"type": "keyup", "time": 18228, "key": "U", "keyCode": 85}, {"type": "position", "time": 18268, "x": null, "y": 0.505}, {"type": "keyup", "time": 18271, "key": "P", "keyCode": 80}, {"type": "position", "time": 18319, "x": null, "y": 0.505}, {"type": "keyup", "time": 18333, "key": " ", "keyCode": 32}, {"type": "position", "time": 18369, "x": null, "y": 0.505}, {"type": "position", "time": 18419, "x": null, "y": 0.505}, {"type": "keyup", "time": 18435, "key": "T", "keyCode": 84}, {"type": "position", "time": 18468, "x": null, "y": 0.505}, {"type": "keyup", "time": 18500, "key": "O", "keyCode": 79}, {"type": "position", "time": 18518, "x": null, "y": 0.505}, {"type": "position", "time": 18569, "x": null, "y": 0.505}, {"type": "position", "time": 18619, "x": null, "y": 0.505}, {"type": "keyup", "time": 18655, "key": "O", "keyCode": 79}, {"type": "position", "time": 18668, "x": null, "y": 0.505}, {"type": "position", "time": 18718, "x": null, "y": 0.505}, {"type": "position", "time": 18768, "x": null, "y": 0.505}, {"type": "position", "time": 18818, "x": null, "y": 0.505}, {"type": "keyup", "time": 18832, "key": " ", "keyCode": 32}, {"type": "position", "time": 18868, "x": null, "y": 0.505}, {"type": "keyup", "time": 18911, "key": "L", "keyCode": 76}, {"type": "position", "time": 18919, "x": null, "y": 0.505}, {"type": "position", "time": 18968, "x": null, "y": 0.505}, {"type": "position", "time": 19018, "x": null, "y": 0.505}, {"type": "position", "time": 19069, "x": null, "y": 0.505}, {"type": "keyup", "time": 19071, "key": "A", "keyCode": 65}, {"type": "position", "time": 19119, "x": null, "y": 0.505}, {"type": "keyup", "time": 19145, "key": "T", "keyCode": 84}, {"type": "position", "time": 19168, "x": null, "y": 0.505}, {"type": "keyup", "time": 19205, "key": "E", "keyCode": 69}, {"type": "position", "time": 19218, "x": null, "y": 0.505}, {"type": "position", "time": 19269, "x": null, "y": 0.505}, {"type": "position", "time": 19319, "x": null, "y": 0.505}, {"type": "position", "time": 19368, "x": null, "y": 0.505}, {"type": "position", "time": 19418, "x": null, "y": 0.505}, {"type": "position", "time": 19468, "x": null, "y": 0.505}, {"type": "position", "time": 19518, "x": null, "y": 0.505}, {"type": "position", "time": 19568, "x": null, "y": 0.505}, {"type": "position", "time": 19620, "x": null, "y": 0.505}, {"type": "position", "time": 19669, "x": null, "y": 0.505}, {"type": "position", "time": 19719, "x": null, "y": 0.505}, {"type": "position", "time": 19770, "x": null, "y": 0.51}, {"type": "position", "time": 19820, "x": null, "y": 0.545}, {"type": "position", "time": 19869, "x": null, "y": 0.5616666666666666}, {"type": "position", "time": 19918, "x": null, "y": 0.5666666666666667}, {"type": "position", "time": 19970, "x": null, "y": 0.5883333333333334}, {"type": "position", "time": 20019, "x": null, "y": 0.6183333333333333}, {"type": "position", "time": 20068, "x": null, "y": 0.6216666666666667}, {"type": "click", "time": 20121, "x": null, "y": 0.6216666666666667}, {"type": "position", "time": 20128, "x": null, "y": 0.6216666666666667}, {"type": "position", "time": 20168, "x": null, "y": 0.6216666666666667}, {"type": "position", "time": 20218, "x": null, "y": 0.6216666666666667}, {"type": "position", "time": 20268, "x": null, "y": 0.6216666666666667}, {"type": "position", "time": 20319, "x": null, "y": 0.6216666666666667}, {"type": "position", "time": 20368, "x": null, "y": 0.6216666666666667}, {"type": "position", "time": 20418, "x": null, "y": 0.6216666666666667}, {"type": "position", "time": 20469, "x": null, "y": 0.6216666666666667}, {"type": "position", "time": 20519, "x": null, "y": 0.6216666666666667}, {"type": "position", "time": 20568, "x": null, "y": 0.6216666666666667}, {"type": "position", "time": 20620, "x": null, "y": 0.62}, {"type": "position", "time": 20672, "x": null, "y": 0.625}, {"type": "position", "time": 20722, "x": null, "y": 0.6266666666666667}, {"type": "position", "time": 20768, "x": null, "y": 0.63}, {"type": "position", "time": 20821, "x": null, "y": 0.6483333333333333}, {"type": "position", "time": 20872, "x": null, "y": 0.6733333333333333}, {"type": "position", "time": 20921, "x": null, "y": 0.6916666666666667}, {"type": "position", "time": 20971, "x": null, "y": 0.695}, {"type": "position", "time": 21021, "x": null, "y": 0.6933333333333334}, {"type": "position", "time": 21071, "x": null, "y": 0.6816666666666666}, {"type": "position", "time": 21119, "x": null, "y": 0.6783333333333333}, {"type": "position", "time": 21169, "x": null, "y": 0.6783333333333333}, {"type": "position", "time": 21222, "x": null, "y": 0.6783333333333333}, {"type": "position", "time": 21268, "x": null, "y": 0.6783333333333333}, {"type": "position", "time": 21319, "x": null, "y": 0.6683333333333333}, {"type": "position", "time": 21372, "x": null, "y": 0.6616666666666666}, {"type": "position", "time": 21418, "x": null, "y": 0.6616666666666666}, {"type": "position", "time": 21468, "x": null, "y": 0.6616666666666666}, {"type": "position", "time": 21522, "x": null, "y": 0.6583333333333333}, {"type": "position", "time": 21571, "x": null, "y": 0.6583333333333333}, {"type": "position", "time": 21621, "x": null, "y": 0.6583333333333333}, {"type": "position", "time": 21671, "x": null, "y": 0.6583333333333333}, {"type": "position", "time": 21718, "x": null, "y": 0.6583333333333333}, {"type": "position", "time": 21772, "x": null, "y": 0.6583333333333333}, {"type": "position", "time": 21819, "x": null, "y": 0.6583333333333333}, {"type": "position", "time": 21872, "x": null, "y": 0.66}, {"type": "position", "time": 21918, "x": null, "y": 0.66}, {"type": "position", "time": 21968, "x": null, "y": 0.66}, {"type": "slider", "time": 21987, "value": 0.88}, {"type": "position", "time": 22018, "x": null, "y": 0.66}, {"type": "click", "time": 22067, "x": null, "y": 0.66}, {"type": "position", "time": 22073, "x": null, "y": 0.66}, {"type": "position", "time": 22118, "x": null, "y": 0.66}, {"type": "position", "time": 22168, "x": null, "y": 0.66}, {"type": "position", "time": 22220, "x": null, "y": 0.66}, {"type": "position", "time": 22302, "x": null, "y": 0.67}, {"type": "position", "time": 22320, "x": null, "y": 0.7166666666666667}, {"type": "position", "time": 22372, "x": null, "y": 0.73}, {"type": "position", "time": 22422, "x": null, "y": 0.7366666666666667}, {"type": "position", "time": 22473, "x": null, "y": 0.745}, {"type": "position", "time": 22519, "x": null, "y": 0.7466666666666667}, {"type": "position", "time": 22569, "x": null, "y": 0.7466666666666667}, {"type": "click", "time": 22627, "x": null, "y": 0.7466666666666667}, {"type": "position", "time": 22636, "x": null, "y": 0.7466666666666667}, {"type": "position", "time": 22668, "x": null, "y": 0.7466666666666667}, {"type": "position", "time": 22718, "x": null, "y": 0.7466666666666667}, {"type": "position", "time": 22768, "x": null, "y": 0.7466666666666667}, {"type": "position", "time": 22818, "x": null, "y": 0.7466666666666667}, {"type": "position", "time": 22868, "x": null, "y": 0.7466666666666667}, {"type": "position", "time": 22918, "x": null, "y": 0.7466666666666667}, {"type": "position", "time": 22971, "x": null, "y": 0.7216666666666667}, {"type": "position", "time": 23022, "x": null, "y": 0.64}, {"type": "position", "time": 23072, "x": null, "y": 0.535}, {"type": "position", "time": 23122, "x": null, "y": 0.38333333333333336}, {"type": "position", "time": 23171, "x": null, "y": 0.2}, {"type": "position", "time": 23263, "x": null, "y": 0.056666666666666664}, {"type": "position", "time": 23268, "x": null, "y": 0.056666666666666664}, {"type": "position", "time": 23318, "x": null, "y": 0.056666666666666664}, {"type": "position", "time": 23368, "x": null, "y": 0.056666666666666664}, {"type": "position", "time": 23418, "x": null, "y": 0.056666666666666664}, {"type": "position", "time": 23468, "x": null, "y": 0.056666666666666664}, {"type": "position", "time": 23518, "x": null, "y": 0.056666666666666664}, {"type": "position", "time": 23568, "x": null, "y": 0.056666666666666664}, {"type": "position", "time": 23620, "x": null, "y": 0.056666666666666664}, {"type": "position", "time": 24626, "x": null, "y": 0.056666666666666664}, {"type": "position", "time": 25625, "x": null, "y": 0.056666666666666664}, {"type": "position", "time": 26318, "x": null, "y": 0.056666666666666664}, {"type": "position", "time": 26326, "x": null, "y": 0.056666666666666664}, {"type": "position", "time": 26368, "x": null, "y": 0.056666666666666664}, {"type": "position", "time": 26419, "x": null, "y": 0.056666666666666664}, {"type": "position", "time": 26468, "x": null, "y": 0.056666666666666664}, {"type": "position", "time": 26519, "x": null, "y": 0.056666666666666664}, {"type": "position", "time": 26569, "x": null, "y": 0.056666666666666664}, {"type": "position", "time": 26619, "x": null, "y": 0.056666666666666664}, {"type": "position", "time": 26669, "x": null, "y": 0.056666666666666664}, {"type": "position", "time": 26718, "x": null, "y": 0.056666666666666664}, {"type": "position", "time": 26768, "x": null, "y": 0.056666666666666664}, {"type": "position", "time": 26818, "x": null, "y": 0.056666666666666664}, {"type": "position", "time": 26868, "x": null, "y": 0.056666666666666664}, {"type": "position", "time": 26918, "x": null, "y": 0.056666666666666664}, {"type": "position", "time": 26972, "x": null, "y": 0.11}, {"type": "position", "time": 27022, "x": null, "y": 0.24833333333333332}, {"type": "position", "time": 27072, "x": null, "y": 0.32166666666666666}, {"type": "position", "time": 27118, "x": null, "y": 0.32666666666666666}, {"type": "position", "time": 27203, "x": null, "y": 0.32666666666666666}, {"type": "position", "time": 27219, "x": null, "y": 0.32666666666666666}, {"type": "position", "time": 27269, "x": null, "y": 0.32666666666666666}, {"type": "position", "time": 27319, "x": null, "y": 0.32666666666666666}, {"type": "position", "time": 27369, "x": null, "y": 0.32666666666666666}, {"type": "position", "time": 27422, "x": null, "y": 0.395}, {"type": "position", "time": 27472, "x": null, "y": 0.4216666666666667}, {"type": "position", "time": 27518, "x": null, "y": 0.43166666666666664}, {"type": "position", "time": 27572, "x": null, "y": 0.4683333333333333}, {"type": "position", "time": 27623, "x": null, "y": 0.49}, {"type": "position", "time": 28278, "x": null, "y": 0.49}, {"type": "position", "time": 28321, "x": null, "y": 0.555}, {"type": "position", "time": 28369, "x": null, "y": 0.555}, {"type": "position", "time": 28418, "x": null, "y": 0.555}, {"type": "position", "time": 28468, "x": null, "y": 0.555}, {"type": "position", "time": 28518, "x": null, "y": 0.555}, {"type": "position", "time": 28568, "x": null, "y": 0.5533333333333333}, {"type": "position", "time": 28618, "x": null, "y": 0.5483333333333333}, {"type": "position", "time": 28668, "x": null, "y": 0.5483333333333333}, {"type": "position", "time": 28718, "x": null, "y": 0.5483333333333333}, {"type": "position", "time": 28768, "x": null, "y": 0.5483333333333333}, {"type": "position", "time": 28818, "x": null, "y": 0.5483333333333333}, {"type": "position", "time": 28868, "x": null, "y": 0.5483333333333333}, {"type": "position", "time": 28919, "x": null, "y": 0.5483333333333333}, {"type": "position", "time": 28969, "x": null, "y": 0.5483333333333333}, {"type": "position", "time": 29019, "x": null, "y": 0.5483333333333333}, {"type": "position", "time": 29069, "x": null, "y": 0.5483333333333333}, {"type": "position", "time": 29118, "x": null, "y": 0.5483333333333333}, {"type": "position", "time": 29168, "x": null, "y": 0.5483333333333333}, {"type": "position", "time": 29219, "x": null, "y": 0.5483333333333333}, {"type": "position", "time": 29269, "x": null, "y": 0.5483333333333333}, {"type": "position", "time": 29319, "x": null, "y": 0.5483333333333333}, {"type": "position", "time": 29369, "x": null, "y": 0.5483333333333333}, {"type": "position", "time": 29419, "x": null, "y": 0.5483333333333333}, {"type": "position", "time": 29468, "x": null, "y": 0.5483333333333333}, {"type": "position", "time": 29518, "x": null, "y": 0.5483333333333333}, {"type": "position", "time": 29568, "x": null, "y": 0.5483333333333333}, {"type": "position", "time": 29618, "x": null, "y": 0.5483333333333333}, {"type": "position", "time": 29668, "x": null, "y": 0.5483333333333333}, {"type": "position", "time": 29718, "x": null, "y": 0.5483333333333333}, {"type": "position", "time": 29768, "x": null, "y": 0.5483333333333333}, {"type": "position", "time": 29818, "x": null, "y": 0.5483333333333333}, {"type": "position", "time": 29868, "x": null, "y": 0.5483333333333333}, {"type": "position", "time": 29919, "x": null, "y": 0.5483333333333333}, {"type": "position", "time": 29969, "x": null, "y": 0.5483333333333333}, {"type": "position", "time": 30019, "x": null, "y": 0.5483333333333333}, {"type": "position", "time": 30069, "x": null, "y": 0.5483333333333333}, {"type": "position", "time": 30118, "x": null, "y": 0.5483333333333333}, {"type": "position", "time": 30168, "x": null, "y": 0.5483333333333333}, {"type": "position", "time": 30218, "x": null, "y": 0.5483333333333333}, {"type": "position", "time": 30268, "x": null, "y": 0.5483333333333333}, {"type": "position", "time": 30318, "x": null, "y": 0.5483333333333333}, {"type": "position", "time": 30368, "x": null, "y": 0.5483333333333333}, {"type": "position", "time": 30419, "x": null, "y": 0.5483333333333333}, {"type": "position", "time": 30468, "x": null, "y": 0.5483333333333333}, {"type": "position", "time": 30518, "x": null, "y": 0.5483333333333333}, {"type": "position", "time": 30569, "x": null, "y": 0.5483333333333333}, {"type": "position", "time": 30618, "x": null, "y": 0.5483333333333333}, {"type": "position", "time": 30668, "x": null, "y": 0.5483333333333333}, {"type": "position", "time": 30718, "x": null, "y": 0.5483333333333333}, {"type": "position", "time": 30768, "x": null, "y": 0.5483333333333333}, {"type": "position", "time": 30818, "x": null, "y": 0.5483333333333333}, {"type": "position", "time": 30868, "x": null, "y": 0.5483333333333333}, {"type": "position", "time": 30919, "x": null, "y": 0.5483333333333333}, {"type": "position", "time": 30969, "x": null, "y": 0.5483333333333333}, {"type": "position", "time": 31019, "x": null, "y": 0.5483333333333333}, {"type": "position", "time": 31069, "x": null, "y": 0.5483333333333333}, {"type": "position", "time": 31118, "x": null, "y": 0.5483333333333333}, {"type": "position", "time": 31168, "x": null, "y": 0.5483333333333333}, {"type": "position", "time": 31219, "x": null, "y": 0.5483333333333333}, {"type": "position", "time": 31268, "x": null, "y": 0.5483333333333333}, {"type": "position", "time": 31318, "x": null, "y": 0.5483333333333333}, {"type": "position", "time": 31368, "x": null, "y": 0.5483333333333333}, {"type": "position", "time": 31418, "x": null, "y": 0.5483333333333333}, {"type": "position", "time": 31468, "x": null, "y": 0.5483333333333333}, {"type": "position", "time": 31519, "x": null, "y": 0.5483333333333333}, {"type": "position", "time": 31569, "x": null, "y": 0.5483333333333333}, {"type": "position", "time": 31619, "x": null, "y": 0.5483333333333333}, {"type": "position", "time": 31669, "x": null, "y": 0.5483333333333333}, {"type": "position", "time": 31719, "x": null, "y": 0.5483333333333333}, {"type": "position", "time": 31769, "x": null, "y": 0.5483333333333333}, {"type": "position", "time": 31818, "x": null, "y": 0.5483333333333333}, {"type": "position", "time": 31868, "x": null, "y": 0.5483333333333333}, {"type": "position", "time": 31918, "x": null, "y": 0.5483333333333333}, {"type": "position", "time": 31968, "x": null, "y": 0.5483333333333333}, {"type": "position", "time": 32018, "x": null, "y": 0.5483333333333333}, {"type": "position", "time": 32068, "x": null, "y": 0.5483333333333333}, {"type": "position", "time": 32118, "x": null, "y": 0.5483333333333333}, {"type": "position", "time": 32168, "x": null, "y": 0.5483333333333333}, {"type": "position", "time": 32218, "x": null, "y": 0.5483333333333333}, {"type": "position", "time": 32268, "x": null, "y": 0.5483333333333333}, {"type": "position", "time": 32318, "x": null, "y": 0.5483333333333333}, {"type": "position", "time": 32368, "x": null, "y": 0.5483333333333333}, {"type": "position", "time": 32418, "x": null, "y": 0.5483333333333333}, {"type": "position", "time": 32468, "x": null, "y": 0.5483333333333333}, {"type": "position", "time": 32518, "x": null, "y": 0.5483333333333333}, {"type": "position", "time": 32569, "x": null, "y": 0.5483333333333333}, {"type": "position", "time": 32619, "x": null, "y": 0.5483333333333333}, {"type": "position", "time": 32669, "x": null, "y": 0.5483333333333333}, {"type": "position", "time": 32719, "x": null, "y": 0.5483333333333333}, {"type": "position", "time": 32769, "x": null, "y": 0.5483333333333333}, {"type": "position", "time": 32822, "x": null, "y": 0.5533333333333333}, {"type": "position", "time": 32873, "x": null, "y": 0.555}, {"type": "position", "time": 32921, "x": null, "y": 0.5666666666666667}, {"type": "position", "time": 32972, "x": null, "y": 0.57}, {"type": "position", "time": 33021, "x": null, "y": 0.5716666666666667}, {"type": "position", "time": 33068, "x": null, "y": 0.5733333333333334}, {"type": "position", "time": 33118, "x": null, "y": 0.5733333333333334}, {"type": "position", "time": 33168, "x": null, "y": 0.5733333333333334}, {"type": "position", "time": 33218, "x": null, "y": 0.5733333333333334}, {"type": "position", "time": 33269, "x": null, "y": 0.5733333333333334}, {"type": "position", "time": 33322, "x": null, "y": 0.5733333333333334}, {"type": "position", "time": 33369, "x": null, "y": 0.5733333333333334}, {"type": "position", "time": 33419, "x": null, "y": 0.5733333333333334}, {"type": "position", "time": 33469, "x": null, "y": 0.5733333333333334}, {"type": "position", "time": 33518, "x": null, "y": 0.5733333333333334}, {"type": "position", "time": 33571, "x": null, "y": 0.5716666666666667}, {"type": "position", "time": 33621, "x": null, "y": 0.5716666666666667}, {"type": "position", "time": 33669, "x": null, "y": 0.57}, {"type": "position", "time": 33718, "x": null, "y": 0.5683333333333334}, {"type": "position", "time": 33768, "x": null, "y": 0.5666666666666667}, {"type": "position", "time": 33820, "x": null, "y": 0.56}, {"type": "position", "time": 33871, "x": null, "y": 0.5533333333333333}, {"type": "position", "time": 33921, "x": null, "y": 0.5516666666666666}, {"type": "position", "time": 33969, "x": null, "y": 0.5516666666666666}, {"type": "slider", "time": 34010, "value": 0.76}, {"type": "position", "time": 34021, "x": null, "y": 0.5516666666666666}, {"type": "position", "time": 34069, "x": null, "y": 0.5516666666666666}, {"type": "click", "time": 34100, "x": null, "y": 0.5516666666666666}, {"type": "position", "time": 34119, "x": null, "y": 0.5516666666666666}, {"type": "position", "time": 34169, "x": null, "y": 0.5516666666666666}, {"type": "position", "time": 34218, "x": null, "y": 0.5516666666666666}, {"type": "position", "time": 34268, "x": null, "y": 0.5516666666666666}, {"type": "position", "time": 34322, "x": null, "y": 0.5816666666666667}, {"type": "position", "time": 34370, "x": null, "y": 0.6316666666666667}, {"type": "position", "time": 34421, "x": null, "y": 0.645}, {"type": "position", "time": 34470, "x": null, "y": 0.6483333333333333}, {"type": "position", "time": 34521, "x": null, "y": 0.6483333333333333}, {"type": "position", "time": 34568, "x": null, "y": 0.6483333333333333}, {"type": "position", "time": 34621, "x": null, "y": 0.6516666666666666}, {"type": "position", "time": 34669, "x": null, "y": 0.6516666666666666}, {"type": "click", "time": 34720, "x": null, "y": 0.6516666666666666}, {"type": "position", "time": 34728, "x": null, "y": 0.6516666666666666}, {"type": "position", "time": 34769, "x": null, "y": 0.6516666666666666}, {"type": "position", "time": 34819, "x": null, "y": 0.6516666666666666}, {"type": "position", "time": 34868, "x": null, "y": 0.6516666666666666}, {"type": "position", "time": 34918, "x": null, "y": 0.6516666666666666}, {"type": "position", "time": 34968, "x": null, "y": 0.6516666666666666}, {"type": "position", "time": 35018, "x": null, "y": 0.6516666666666666}, {"type": "position", "time": 35068, "x": null, "y": 0.6516666666666666}, {"type": "position", "time": 35118, "x": null, "y": 0.6516666666666666}, {"type": "position", "time": 35169, "x": null, "y": 0.6516666666666666}, {"type": "position", "time": 35236, "x": null, "y": 0.6516666666666666}, {"type": "position", "time": 35268, "x": null, "y": 0.6516666666666666}, {"type": "position", "time": 35318, "x": null, "y": 0.6516666666666666}, {"type": "position", "time": 35368, "x": null, "y": 0.6516666666666666}, {"type": "position", "time": 35418, "x": null, "y": 0.6516666666666666}, {"type": "position", "time": 35469, "x": null, "y": 0.6516666666666666}, {"type": "position", "time": 35519, "x": null, "y": 0.6516666666666666}, {"type": "position", "time": 35570, "x": null, "y": 0.6516666666666666}, {"type": "position", "time": 35619, "x": null, "y": 0.6516666666666666}, {"type": "position", "time": 35669, "x": null, "y": 0.6516666666666666}, {"type": "position", "time": 35719, "x": null, "y": 0.6516666666666666}, {"type": "position", "time": 35768, "x": null, "y": 0.6516666666666666}, {"type": "position", "time": 35818, "x": null, "y": 0.6516666666666666}, {"type": "position", "time": 35869, "x": null, "y": 0.6516666666666666}, {"type": "position", "time": 35918, "x": null, "y": 0.6516666666666666}, {"type": "position", "time": 35968, "x": null, "y": 0.6516666666666666}, {"type": "position", "time": 36022, "x": null, "y": 0.6283333333333333}, {"type": "position", "time": 36072, "x": null, "y": 0.61}, {"type": "position", "time": 36120, "x": null, "y": 0.5883333333333334}, {"type": "position", "time": 36204, "x": null, "y": 0.5766666666666667}, {"type": "position", "time": 36220, "x": null, "y": 0.535}, {"type": "position", "time": 36271, "x": null, "y": 0.5333333333333333}, {"type": "position", "time": 36321, "x": null, "y": 0.54}, {"type": "position", "time": 36369, "x": null, "y": 0.5483333333333333}, {"type": "position", "time": 36419, "x": null, "y": 0.5483333333333333}, {"type": "position", "time": 36468, "x": null, "y": 0.5483333333333333}, {"type": "position", "time": 36518, "x": null, "y": 0.5483333333333333}, {"type": "position", "time": 36568, "x": null, "y": 0.5483333333333333}, {"type": "position", "time": 36618, "x": null, "y": 0.5483333333333333}, {"type": "position", "time": 36668, "x": null, "y": 0.5483333333333333}, {"type": "position", "time": 36718, "x": null, "y": 0.5483333333333333}, {"type": "position", "time": 36769, "x": null, "y": 0.5483333333333333}, {"type": "position", "time": 36819, "x": null, "y": 0.5483333333333333}, {"type": "position", "time": 36869, "x": null, "y": 0.5483333333333333}, {"type": "position", "time": 36919, "x": null, "y": 0.5483333333333333}, {"type": "position", "time": 36969, "x": null, "y": 0.5483333333333333}, {"type": "position", "time": 37018, "x": null, "y": 0.5483333333333333}, {"type": "position", "time": 37068, "x": null, "y": 0.5483333333333333}, {"type": "position", "time": 37118, "x": null, "y": 0.5483333333333333}, {"type": "position", "time": 37212, "x": null, "y": 0.5483333333333333}, {"type": "position", "time": 37218, "x": null, "y": 0.5483333333333333}, {"type": "position", "time": 37271, "x": null, "y": 0.555}, {"type": "position", "time": 37320, "x": null, "y": 0.5566666666666666}, {"type": "position", "time": 37370, "x": null, "y": 0.5583333333333333}, {"type": "position", "time": 37421, "x": null, "y": 0.5583333333333333}, {"type": "position", "time": 37471, "x": null, "y": 0.56}, {"type": "position", "time": 37521, "x": null, "y": 0.565}, {"type": "position", "time": 37569, "x": null, "y": 0.5666666666666667}, {"type": "slider", "time": 37600, "value": 0.13}, {"type": "position", "time": 37619, "x": null, "y": 0.5666666666666667}, {"type": "position", "time": 37669, "x": null, "y": 0.5666666666666667}, {"type": "click", "time": 37692, "x": null, "y": 0.5666666666666667}, {"type": "position", "time": 37718, "x": null, "y": 0.5666666666666667}, {"type": "position", "time": 37768, "x": null, "y": 0.5666666666666667}, {"type": "position", "time": 37819, "x": null, "y": 0.5666666666666667}, {"type": "position", "time": 37871, "x": null, "y": 0.6033333333333334}, {"type": "position", "time": 37921, "x": null, "y": 0.6433333333333333}, {"type": "position", "time": 37970, "x": null, "y": 0.6566666666666666}, {"type": "position", "time": 38020, "x": null, "y": 0.6633333333333333}, {"type": "position", "time": 38071, "x": null, "y": 0.675}, {"type": "position", "time": 38122, "x": null, "y": 0.6883333333333334}, {"type": "position", "time": 38169, "x": null, "y": 0.6883333333333334}, {"type": "position", "time": 38235, "x": null, "y": 0.6883333333333334}, {"type": "position", "time": 38269, "x": null, "y": 0.6883333333333334}, {"type": "position", "time": 38319, "x": null, "y": 0.6883333333333334}, {"type": "position", "time": 38369, "x": null, "y": 0.6883333333333334}, {"type": "position", "time": 38418, "x": null, "y": 0.6883333333333334}, {"type": "position", "time": 38468, "x": null, "y": 0.6883333333333334}, {"type": "position", "time": 38519, "x": null, "y": 0.6783333333333333}, {"type": "position", "time": 38570, "x": null, "y": 0.6566666666666666}, {"type": "position", "time": 38620, "x": null, "y": 0.6316666666666667}, {"type": "position", "time": 38670, "x": null, "y": 0.61}, {"type": "position", "time": 38721, "x": null, "y": 0.5966666666666667}, {"type": "position", "time": 38769, "x": null, "y": 0.5933333333333334}, {"type": "position", "time": 38819, "x": null, "y": 0.5916666666666667}, {"type": "position", "time": 38869, "x": null, "y": 0.5883333333333334}, {"type": "position", "time": 38924, "x": null, "y": 0.5766666666666667}, {"type": "position", "time": 38970, "x": null, "y": 0.5683333333333334}, {"type": "position", "time": 39022, "x": null, "y": 0.5716666666666667}, {"type": "position", "time": 39069, "x": null, "y": 0.5816666666666667}, {"type": "position", "time": 39159, "x": null, "y": 0.5816666666666667}, {"type": "position", "time": 39168, "x": null, "y": 0.5816666666666667}, {"type": "position", "time": 39218, "x": null, "y": 0.5816666666666667}, {"type": "position", "time": 39271, "x": null, "y": 0.5816666666666667}, {"type": "position", "time": 39321, "x": null, "y": 0.575}, {"type": "position", "time": 39370, "x": null, "y": 0.5733333333333334}, {"type": "click", "time": 39399, "x": null, "y": 0.5716666666666667}, {"type": "position", "time": 39420, "x": null, "y": 0.57}, {"type": "position", "time": 39469, "x": null, "y": 0.57}, {"type": "position", "time": 39522, "x": null, "y": 0.5766666666666667}, {"type": "position", "time": 39571, "x": null, "y": 0.5816666666666667}, {"type": "position", "time": 39619, "x": null, "y": 0.5816666666666667}, {"type": "position", "time": 39670, "x": null, "y": 0.5716666666666667}, {"type": "position", "time": 39719, "x": null, "y": 0.565}, {"type": "position", "time": 39769, "x": null, "y": 0.565}, {"type": "position", "time": 39819, "x": null, "y": 0.565}, {"type": "position", "time": 39868, "x": null, "y": 0.565}, {"type": "position", "time": 39918, "x": null, "y": 0.565}, {"type": "position", "time": 39968, "x": null, "y": 0.565}, {"type": "position", "time": 40018, "x": null, "y": 0.565}, {"type": "slider", "time": 40072, "value": 0.11}, {"type": "position", "time": 40072, "x": null, "y": 0.565}, {"type": "slider", "time": 40091, "value": 0.09}, {"type": "slider", "time": 40108, "value": 0.04}, {"type": "slider", "time": 40125, "value": 0}, {"type": "position", "time": 40126, "x": null, "y": 0.555}, {"type": "position", "time": 40224, "x": null, "y": 0.5583333333333333}, {"type": "click", "time": 40242, "x": null, "y": 0.5583333333333333}, {"type": "position", "time": 40269, "x": null, "y": 0.5583333333333333}, {"type": "position", "time": 40321, "x": null, "y": 0.56}, {"type": "position", "time": 40370, "x": null, "y": 0.565}, {"type": "position", "time": 40420, "x": null, "y": 0.5766666666666667}, {"type": "position", "time": 40470, "x": null, "y": 0.585}, {"type": "position", "time": 40520, "x": null, "y": 0.5916666666666667}, {"type": "position", "time": 40570, "x": null, "y": 0.5983333333333334}, {"type": "position", "time": 40620, "x": null, "y": 0.6166666666666667}, {"type": "click", "time": 41245, "x": null, "y": 0.62}, {"type": "position", "time": 41247, "x": null, "y": 0.62}, {"type": "position", "time": 41269, "x": null, "y": 0.6633333333333333}, {"type": "position", "time": 41318, "x": null, "y": 0.6633333333333333}, {"type": "position", "time": 41368, "x": null, "y": 0.6633333333333333}, {"type": "position", "time": 41419, "x": null, "y": 0.6633333333333333}, {"type": "click", "time": 41450, "x": null, "y": 0.6633333333333333}, {"type": "position", "time": 41469, "x": null, "y": 0.6633333333333333}, {"type": "position", "time": 41519, "x": null, "y": 0.6633333333333333}, {"type": "position", "time": 41569, "x": null, "y": 0.6633333333333333}, {"type": "position", "time": 41619, "x": null, "y": 0.6633333333333333}, {"type": "position", "time": 41669, "x": null, "y": 0.6633333333333333}, {"type": "position", "time": 41719, "x": null, "y": 0.6633333333333333}, {"type": "position", "time": 41769, "x": null, "y": 0.6633333333333333}, {"type": "position", "time": 41818, "x": null, "y": 0.6633333333333333}, {"type": "position", "time": 41868, "x": null, "y": 0.6633333333333333}, {"type": "position", "time": 41918, "x": null, "y": 0.6633333333333333}, {"type": "position", "time": 41968, "x": null, "y": 0.6633333333333333}, {"type": "position", "time": 42018, "x": null, "y": 0.6633333333333333}, {"type": "position", "time": 42069, "x": null, "y": 0.655}, {"type": "position", "time": 42120, "x": null, "y": 0.6283333333333333}, {"type": "position", "time": 42172, "x": null, "y": 0.6133333333333333}, {"type": "position", "time": 42220, "x": null, "y": 0.6133333333333333}, {"type": "position", "time": 42269, "x": null, "y": 0.6183333333333333}, {"type": "position", "time": 42320, "x": null, "y": 0.6266666666666667}, {"type": "position", "time": 42371, "x": null, "y": 0.635}, {"type": "position", "time": 42420, "x": null, "y": 0.64}, {"type": "position", "time": 42476, "x": null, "y": 0.65}, {"type": "position", "time": 42518, "x": null, "y": 0.65}, {"type": "position", "time": 42568, "x": null, "y": 0.65}, {"type": "position", "time": 42618, "x": null, "y": 0.65}, {"type": "position", "time": 42668, "x": null, "y": 0.65}, {"type": "position", "time": 42718, "x": null, "y": 0.65}, {"type": "position", "time": 42769, "x": null, "y": 0.65}, {"type": "position", "time": 42819, "x": null, "y": 0.65}, {"type": "position", "time": 42869, "x": null, "y": 0.65}, {"type": "position", "time": 42918, "x": null, "y": 0.65}, {"type": "position", "time": 42968, "x": null, "y": 0.65}, {"type": "position", "time": 43018, "x": null, "y": 0.65}, {"type": "position", "time": 43069, "x": null, "y": 0.65}, {"type": "position", "time": 43119, "x": null, "y": 0.65}, {"type": "position", "time": 43169, "x": null, "y": 0.65}, {"type": "position", "time": 43219, "x": null, "y": 0.65}, {"type": "position", "time": 43269, "x": null, "y": 0.65}, {"type": "position", "time": 43319, "x": null, "y": 0.65}, {"type": "position", "time": 43369, "x": null, "y": 0.65}, {"type": "click", "time": 43373, "x": null, "y": 0.65}, {"type": "position", "time": 43419, "x": null, "y": 0.65}, {"type": "position", "time": 43468, "x": null, "y": 0.65}, {"type": "position", "time": 43518, "x": null, "y": 0.65}, {"type": "position", "time": 43568, "x": null, "y": 0.65}, {"type": "position", "time": 43618, "x": null, "y": 0.65}, {"type": "position", "time": 43668, "x": null, "y": 0.65}, {"type": "position", "time": 43719, "x": null, "y": 0.65}, {"type": "position", "time": 43769, "x": null, "y": 0.65}, {"type": "position", "time": 43819, "x": null, "y": 0.65}, {"type": "position", "time": 43869, "x": null, "y": 0.65}, {"type": "position", "time": 43919, "x": null, "y": 0.6466666666666666}, {"type": "position", "time": 43973, "x": null, "y": 0.6266666666666667}, {"type": "position", "time": 44021, "x": null, "y": 0.61}, {"type": "position", "time": 44070, "x": null, "y": 0.6033333333333334}, {"type": "position", "time": 44120, "x": null, "y": 0.6016666666666667}, {"type": "position", "time": 44169, "x": null, "y": 0.5933333333333334}, {"type": "position", "time": 44220, "x": null, "y": 0.5916666666666667}, {"type": "position", "time": 44270, "x": null, "y": 0.5866666666666667}, {"type": "position", "time": 44321, "x": null, "y": 0.5866666666666667}, {"type": "position", "time": 44370, "x": null, "y": 0.585}, {"type": "position", "time": 44419, "x": null, "y": 0.5816666666666667}, {"type": "position", "time": 44474, "x": null, "y": 0.58}, {"type": "position", "time": 44521, "x": null, "y": 0.5766666666666667}, {"type": "position", "time": 44570, "x": null, "y": 0.5733333333333334}, {"type": "position", "time": 44620, "x": null, "y": 0.5733333333333334}, {"type": "position", "time": 44669, "x": null, "y": 0.5733333333333334}, {"type": "position", "time": 44719, "x": null, "y": 0.5733333333333334}, {"type": "position", "time": 44769, "x": null, "y": 0.57}, {"type": "slider", "time": 44772, "value": 0.5}, {"type": "position", "time": 44818, "x": null, "y": 0.57}, {"type": "position", "time": 44868, "x": null, "y": 0.57}, {"type": "position", "time": 44918, "x": null, "y": 0.57}, {"type": "position", "time": 44968, "x": null, "y": 0.57}, {"type": "slider", "time": 44980, "value": 0.52}, {"type": "slider", "time": 44991, "value": 0.55}, {"type": "slider", "time": 45008, "value": 0.6}, {"type": "slider", "time": 45027, "value": 0.67}, {"type": "position", "time": 45027, "x": null, "y": 0.5366666666666666}, {"type": "slider", "time": 45041, "value": 0.77}, {"type": "slider", "time": 45059, "value": 0.83}, {"type": "slider", "time": 45074, "value": 0.88}, {"type": "position", "time": 45075, "x": null, "y": 0.5283333333333333}, {"type": "slider", "time": 45092, "value": 0.93}, {"type": "slider", "time": 45108, "value": 0.99}, {"type": "slider", "time": 45125, "value": 1}, {"type": "position", "time": 45126, "x": null, "y": 0.5433333333333333}, {"type": "position", "time": 45170, "x": null, "y": 0.5566666666666666}, {"type": "position", "time": 45219, "x": null, "y": 0.5616666666666666}, {"type": "click", "time": 45234, "x": null, "y": 0.5616666666666666}, {"type": "position", "time": 45269, "x": null, "y": 0.5616666666666666}, {"type": "position", "time": 45319, "x": null, "y": 0.5616666666666666}, {"type": "position", "time": 45370, "x": null, "y": 0.5733333333333334}, {"type": "position", "time": 45419, "x": null, "y": 0.5966666666666667}, {"type": "position", "time": 45473, "x": null, "y": 0.6083333333333333}, {"type": "position", "time": 45520, "x": null, "y": 0.6216666666666667}, {"type": "position", "time": 45569, "x": null, "y": 0.635}, {"type": "position", "time": 45619, "x": null, "y": 0.6433333333333333}, {"type": "position", "time": 45669, "x": null, "y": 0.6466666666666666}, {"type": "position", "time": 45720, "x": null, "y": 0.6483333333333333}, {"type": "position", "time": 45770, "x": null, "y": 0.65}, {"type": "position", "time": 45820, "x": null, "y": 0.6516666666666666}, {"type": "position", "time": 45869, "x": null, "y": 0.6533333333333333}, {"type": "position", "time": 45919, "x": null, "y": 0.6566666666666666}, {"type": "position", "time": 45969, "x": null, "y": 0.6566666666666666}, {"type": "position", "time": 46019, "x": null, "y": 0.6566666666666666}, {"type": "position", "time": 46069, "x": null, "y": 0.6566666666666666}, {"type": "position", "time": 46119, "x": null, "y": 0.6566666666666666}, {"type": "position", "time": 46168, "x": null, "y": 0.6566666666666666}, {"type": "position", "time": 46218, "x": null, "y": 0.6566666666666666}, {"type": "position", "time": 46268, "x": null, "y": 0.6566666666666666}, {"type": "position", "time": 46323, "x": null, "y": 0.6566666666666666}, {"type": "position", "time": 46369, "x": null, "y": 0.6566666666666666}, {"type": "position", "time": 46419, "x": null, "y": 0.6566666666666666}, {"type": "click", "time": 46479, "x": null, "y": 0.6566666666666666}, {"type": "position", "time": 46489, "x": null, "y": 0.6566666666666666}, {"type": "position", "time": 46519, "x": null, "y": 0.6566666666666666}, {"type": "position", "time": 46569, "x": null, "y": 0.6566666666666666}, {"type": "position", "time": 46619, "x": null, "y": 0.6566666666666666}, {"type": "position", "time": 46669, "x": null, "y": 0.6566666666666666}, {"type": "position", "time": 46719, "x": null, "y": 0.6566666666666666}, {"type": "position", "time": 46769, "x": null, "y": 0.6566666666666666}, {"type": "position", "time": 46818, "x": null, "y": 0.6566666666666666}, {"type": "position", "time": 46869, "x": null, "y": 0.6566666666666666}, {"type": "position", "time": 46918, "x": null, "y": 0.6566666666666666}, {"type": "position", "time": 46968, "x": null, "y": 0.6566666666666666}, {"type": "position", "time": 47018, "x": null, "y": 0.6566666666666666}, {"type": "position", "time": 47070, "x": null, "y": 0.6466666666666666}, {"type": "position", "time": 47120, "x": null, "y": 0.6233333333333333}, {"type": "position", "time": 47170, "x": null, "y": 0.6016666666666667}, {"type": "position", "time": 47220, "x": null, "y": 0.5816666666666667}, {"type": "position", "time": 47271, "x": null, "y": 0.5683333333333334}, {"type": "position", "time": 47320, "x": null, "y": 0.55}, {"type": "position", "time": 47370, "x": null, "y": 0.5333333333333333}, {"type": "position", "time": 47420, "x": null, "y": 0.525}, {"type": "position", "time": 47469, "x": null, "y": 0.52}, {"type": "position", "time": 47519, "x": null, "y": 0.5266666666666666}, {"type": "position", "time": 47569, "x": null, "y": 0.53}, {"type": "position", "time": 47620, "x": null, "y": 0.53}, {"type": "position", "time": 47670, "x": null, "y": 0.5266666666666666}, {"type": "position", "time": 47721, "x": null, "y": 0.525}, {"type": "position", "time": 47769, "x": null, "y": 0.52}, {"type": "position", "time": 47819, "x": null, "y": 0.52}, {"type": "position", "time": 47869, "x": null, "y": 0.52}, {"type": "position", "time": 47919, "x": null, "y": 0.52}, {"type": "position", "time": 47968, "x": null, "y": 0.52}, {"type": "position", "time": 48018, "x": null, "y": 0.52}, {"type": "position", "time": 48068, "x": null, "y": 0.5216666666666666}, {"type": "position", "time": 48118, "x": null, "y": 0.5216666666666666}, {"type": "position", "time": 48169, "x": null, "y": 0.5216666666666666}, {"type": "position", "time": 48219, "x": null, "y": 0.525}, {"type": "position", "time": 48277, "x": null, "y": 0.525}, {"type": "position", "time": 48319, "x": null, "y": 0.525}, {"type": "position", "time": 48369, "x": null, "y": 0.5283333333333333}, {"type": "position", "time": 48419, "x": null, "y": 0.5316666666666666}, {"type": "position", "time": 48469, "x": null, "y": 0.5366666666666666}, {"type": "position", "time": 48518, "x": null, "y": 0.5383333333333333}, {"type": "position", "time": 48571, "x": null, "y": 0.5433333333333333}, {"type": "position", "time": 48618, "x": null, "y": 0.5433333333333333}, {"type": "position", "time": 48668, "x": null, "y": 0.5433333333333333}, {"type": "position", "time": 48719, "x": null, "y": 0.5433333333333333}, {"type": "position", "time": 48771, "x": null, "y": 0.5383333333333333}, {"type": "position", "time": 48819, "x": null, "y": 0.5383333333333333}, {"type": "position", "time": 48869, "x": null, "y": 0.5366666666666666}, {"type": "position", "time": 48919, "x": null, "y": 0.535}, {"type": "position", "time": 48969, "x": null, "y": 0.535}, {"type": "position", "time": 49020, "x": null, "y": 0.5333333333333333}, {"type": "slider", "time": 49047, "value": 0.47}, {"type": "position", "time": 49069, "x": null, "y": 0.5333333333333333}, {"type": "position", "time": 49119, "x": null, "y": 0.5333333333333333}, {"type": "slider", "time": 49185, "value": 0.48}, {"type": "slider", "time": 49195, "value": 0.5}, {"type": "position", "time": 49195, "x": null, "y": 0.5316666666666666}, {"type": "slider", "time": 49208, "value": 0.51}, {"type": "slider", "time": 49224, "value": 0.52}, {"type": "position", "time": 49225, "x": null, "y": 0.5316666666666666}, {"type": "slider", "time": 49240, "value": 0.53}, {"type": "slider", "time": 49257, "value": 0.55}, {"type": "slider", "time": 49273, "value": 0.56}, {"type": "position", "time": 49274, "x": null, "y": 0.53}, {"type": "slider", "time": 49321, "value": 0.57}, {"type": "position", "time": 49321, "x": null, "y": 0.53}, {"type": "position", "time": 49374, "x": null, "y": 0.53}, {"type": "slider", "time": 49387, "value": 0.58}, {"type": "slider", "time": 49420, "value": 0.59}, {"type": "position", "time": 49420, "x": null, "y": 0.5283333333333333}, {"type": "slider", "time": 49440, "value": 0.6}, {"type": "slider", "time": 49457, "value": 0.61}, {"type": "slider", "time": 49474, "value": 0.62}, {"type": "position", "time": 49475, "x": null, "y": 0.5233333333333333}, {"type": "slider", "time": 49490, "value": 0.63}, {"type": "slider", "time": 49507, "value": 0.65}, {"type": "slider", "time": 49523, "value": 0.66}, {"type": "position", "time": 49523, "x": null, "y": 0.52}, {"type": "slider", "time": 49540, "value": 0.68}, {"type": "slider", "time": 49556, "value": 0.7}, {"type": "slider", "time": 49577, "value": 0.72}, {"type": "position", "time": 49577, "x": null, "y": 0.515}, {"type": "slider", "time": 49590, "value": 0.74}, {"type": "slider", "time": 49607, "value": 0.76}, {"type": "slider", "time": 49625, "value": 0.78}, {"type": "position", "time": 49625, "x": null, "y": 0.52}, {"type": "slider", "time": 49642, "value": 0.79}, {"type": "position", "time": 49668, "x": null, "y": 0.52}, {"type": "slider", "time": 49703, "value": 0.8}, {"type": "slider", "time": 49721, "value": 0.81}, {"type": "position", "time": 49722, "x": null, "y": 0.5166666666666667}, {"type": "slider", "time": 49742, "value": 0.82}, {"type": "slider", "time": 49760, "value": 0.83}, {"type": "slider", "time": 49777, "value": 0.84}, {"type": "position", "time": 49777, "x": null, "y": 0.5116666666666667}, {"type": "slider", "time": 49794, "value": 0.86}, {"type": "slider", "time": 49811, "value": 0.87}, {"type": "slider", "time": 49826, "value": 0.88}, {"type": "position", "time": 49827, "x": null, "y": 0.5066666666666667}, {"type": "slider", "time": 49856, "value": 0.89}, {"type": "position", "time": 49875, "x": null, "y": 0.5066666666666667}, {"type": "slider", "time": 49923, "value": 0.9}, {"type": "position", "time": 49926, "x": null, "y": 0.5066666666666667}, {"type": "slider", "time": 49954, "value": 0.91}, {"type": "position", "time": 49969, "x": null, "y": 0.5083333333333333}, {"type": "position", "time": 50019, "x": null, "y": 0.5083333333333333}, {"type": "position", "time": 50069, "x": null, "y": 0.5083333333333333}, {"type": "position", "time": 50119, "x": null, "y": 0.5083333333333333}, {"type": "position", "time": 50169, "x": null, "y": 0.5083333333333333}, {"type": "position", "time": 50272, "x": null, "y": 0.5083333333333333}, {"type": "position", "time": 50318, "x": null, "y": 0.5083333333333333}, {"type": "slider", "time": 50348, "value": 0.93}, {"type": "slider", "time": 50371, "value": 0.95}, {"type": "position", "time": 50371, "x": null, "y": 0.5133333333333333}, {"type": "slider", "time": 50389, "value": 0.96}, {"type": "slider", "time": 50408, "value": 0.98}, {"type": "slider", "time": 50423, "value": 0.99}, {"type": "position", "time": 50424, "x": null, "y": 0.5133333333333333}, {"type": "slider", "time": 50441, "value": 1}, {"type": "position", "time": 50475, "x": null, "y": 0.515}, {"type": "position", "time": 50524, "x": null, "y": 0.515}, {"type": "position", "time": 50568, "x": null, "y": 0.5166666666666667}, {"type": "position", "time": 50618, "x": null, "y": 0.5166666666666667}, {"type": "click", "time": 50638, "x": null, "y": 0.5166666666666667}, {"type": "position", "time": 50668, "x": null, "y": 0.5166666666666667}, {"type": "position", "time": 50719, "x": null, "y": 0.5166666666666667}, {"type": "position", "time": 50774, "x": null, "y": 0.5283333333333333}, {"type": "position", "time": 50821, "x": null, "y": 0.5433333333333333}, {"type": "position", "time": 50870, "x": null, "y": 0.5683333333333334}, {"type": "position", "time": 50920, "x": null, "y": 0.5816666666666667}, {"type": "position", "time": 50975, "x": null, "y": 0.59}, {"type": "position", "time": 51019, "x": null, "y": 0.5933333333333334}, {"type": "position", "time": 51069, "x": null, "y": 0.5933333333333334}, {"type": "position", "time": 51119, "x": null, "y": 0.6016666666666667}, {"type": "position", "time": 51170, "x": null, "y": 0.6033333333333334}, {"type": "position", "time": 51257, "x": null, "y": 0.6066666666666667}, {"type": "position", "time": 51269, "x": null, "y": 0.6133333333333333}, {"type": "position", "time": 51318, "x": null, "y": 0.6133333333333333}, {"type": "position", "time": 51369, "x": null, "y": 0.6133333333333333}, {"type": "position", "time": 51420, "x": null, "y": 0.615}, {"type": "position", "time": 51469, "x": null, "y": 0.615}, {"type": "position", "time": 51522, "x": null, "y": 0.6083333333333333}, {"type": "position", "time": 51569, "x": null, "y": 0.605}, {"type": "position", "time": 51619, "x": null, "y": 0.605}, {"type": "position", "time": 51669, "x": null, "y": 0.605}, {"type": "position", "time": 51719, "x": null, "y": 0.605}, {"type": "position", "time": 51769, "x": null, "y": 0.605}, {"type": "position", "time": 51819, "x": null, "y": 0.605}, {"type": "position", "time": 51869, "x": null, "y": 0.605}, {"type": "position", "time": 51918, "x": null, "y": 0.605}, {"type": "position", "time": 51968, "x": null, "y": 0.605}, {"type": "position", "time": 52018, "x": null, "y": 0.605}, {"type": "position", "time": 52069, "x": null, "y": 0.605}, {"type": "position", "time": 52119, "x": null, "y": 0.605}, {"type": "position", "time": 52169, "x": null, "y": 0.605}, {"type": "position", "time": 52268, "x": null, "y": 0.605}, {"type": "position", "time": 52270, "x": null, "y": 0.605}, {"type": "position", "time": 52319, "x": null, "y": 0.605}, {"type": "position", "time": 52369, "x": null, "y": 0.605}, {"type": "position", "time": 52419, "x": null, "y": 0.605}, {"type": "position", "time": 52469, "x": null, "y": 0.605}, {"type": "position", "time": 52518, "x": null, "y": 0.605}, {"type": "position", "time": 52568, "x": null, "y": 0.605}, {"type": "position", "time": 52618, "x": null, "y": 0.605}, {"type": "position", "time": 52669, "x": null, "y": 0.605}, {"type": "position", "time": 52720, "x": null, "y": 0.61}, {"type": "position", "time": 52769, "x": null, "y": 0.61}, {"type": "position", "time": 52819, "x": null, "y": 0.61}, {"type": "position", "time": 52869, "x": null, "y": 0.61}, {"type": "position", "time": 52919, "x": null, "y": 0.61}, {"type": "position", "time": 52969, "x": null, "y": 0.61}, {"type": "position", "time": 53019, "x": null, "y": 0.61}, {"type": "position", "time": 53069, "x": null, "y": 0.61}, {"type": "position", "time": 53119, "x": null, "y": 0.61}, {"type": "click", "time": 53139, "x": null, "y": 0.61}, {"type": "position", "time": 53211, "x": null, "y": 0.61}, {"type": "position", "time": 53218, "x": null, "y": 0.61}, {"type": "position", "time": 53268, "x": null, "y": 0.61}, {"type": "position", "time": 53318, "x": null, "y": 0.61}, {"type": "position", "time": 53369, "x": null, "y": 0.61}, {"type": "position", "time": 53419, "x": null, "y": 0.61}, {"type": "position", "time": 53469, "x": null, "y": 0.61}, {"type": "position", "time": 53519, "x": null, "y": 0.61}, {"type": "position", "time": 53569, "x": null, "y": 0.61}, {"type": "position", "time": 53619, "x": null, "y": 0.61}, {"type": "position", "time": 54236, "x": null, "y": 0.6083333333333333}, {"type": "position", "time": 54269, "x": null, "y": 0.535}, {"type": "position", "time": 54319, "x": null, "y": 0.535}, {"type": "position", "time": 54369, "x": null, "y": 0.5316666666666666}, {"type": "position", "time": 54419, "x": null, "y": 0.52}, {"type": "position", "time": 54470, "x": null, "y": 0.51}, {"type": "position", "time": 54520, "x": null, "y": 0.5066666666666667}, {"type": "position", "time": 54568, "x": null, "y": 0.505}, {"type": "position", "time": 54618, "x": null, "y": 0.505}, {"type": "position", "time": 54668, "x": null, "y": 0.505}, {"type": "position", "time": 54719, "x": null, "y": 0.5033333333333333}, {"type": "position", "time": 54769, "x": null, "y": 0.5033333333333333}, {"type": "position", "time": 54819, "x": null, "y": 0.5033333333333333}, {"type": "position", "time": 54869, "x": null, "y": 0.5033333333333333}, {"type": "position", "time": 54919, "x": null, "y": 0.5033333333333333}, {"type": "position", "time": 54969, "x": null, "y": 0.5033333333333333}, {"type": "position", "time": 55019, "x": null, "y": 0.5033333333333333}, {"type": "position", "time": 55069, "x": null, "y": 0.5033333333333333}, {"type": "position", "time": 55119, "x": null, "y": 0.5033333333333333}, {"type": "position", "time": 55169, "x": null, "y": 0.5033333333333333}, {"type": "position", "time": 55218, "x": null, "y": 0.5033333333333333}, {"type": "position", "time": 55268, "x": null, "y": 0.5033333333333333}, {"type": "position", "time": 55318, "x": null, "y": 0.5033333333333333}, {"type": "position", "time": 55369, "x": null, "y": 0.5033333333333333}, {"type": "position", "time": 55419, "x": null, "y": 0.5033333333333333}, {"type": "position", "time": 55469, "x": null, "y": 0.5033333333333333}, {"type": "click", "time": 55480, "x": null, "y": 0.5033333333333333}, {"type": "position", "time": 55519, "x": null, "y": 0.5033333333333333}, {"type": "position", "time": 55569, "x": null, "y": 0.5033333333333333}, {"type": "position", "time": 55619, "x": null, "y": 0.5033333333333333}, {"type": "position", "time": 55670, "x": null, "y": 0.5033333333333333}, {"type": "position", "time": 55720, "x": null, "y": 0.5033333333333333}, {"type": "position", "time": 55774, "x": null, "y": 0.5083333333333333}, {"type": "position", "time": 55823, "x": null, "y": 0.5166666666666667}, {"type": "position", "time": 55874, "x": null, "y": 0.53}, {"type": "position", "time": 55923, "x": null, "y": 0.545}, {"type": "position", "time": 55973, "x": null, "y": 0.585}, {"type": "position", "time": 56024, "x": null, "y": 0.615}, {"type": "position", "time": 56074, "x": null, "y": 0.6416666666666667}, {"type": "position", "time": 56120, "x": null, "y": 0.6416666666666667}, {"type": "position", "time": 56170, "x": null, "y": 0.6416666666666667}, {"type": "position", "time": 56220, "x": null, "y": 0.6416666666666667}, {"type": "position", "time": 56274, "x": null, "y": 0.575}, {"type": "position", "time": 56320, "x": null, "y": 0.51}, {"type": "position", "time": 56370, "x": null, "y": 0.51}, {"type": "position", "time": 56420, "x": null, "y": 0.51}, {"type": "position", "time": 56470, "x": null, "y": 0.51}, {"type": "position", "time": 56520, "x": null, "y": 0.51}, {"type": "position", "time": 56570, "x": null, "y": 0.51}, {"type": "position", "time": 56619, "x": null, "y": 0.51}, {"type": "position", "time": 56669, "x": null, "y": 0.51}, {"type": "position", "time": 56720, "x": null, "y": 0.51}, {"type": "position", "time": 56770, "x": null, "y": 0.51}, {"type": "position", "time": 56820, "x": null, "y": 0.51}, {"type": "position", "time": 56870, "x": null, "y": 0.51}, {"type": "keyup", "time": 56922, "key": "\u0010", "keyCode": 16}, {"type": "position", "time": 56922, "x": null, "y": 0.51}, {"type": "position", "time": 56970, "x": null, "y": 0.51}, {"type": "keyup", "time": 56999, "key": "S", "keyCode": 83}, {"type": "position", "time": 57021, "x": null, "y": 0.51}, {"type": "position", "time": 57069, "x": null, "y": 0.51}, {"type": "keyup", "time": 57117, "key": "H", "keyCode": 72}, {"type": "position", "time": 57119, "x": null, "y": 0.51}, {"type": "position", "time": 57170, "x": null, "y": 0.51}, {"type": "keyup", "time": 57171, "key": "E", "keyCode": 69}, {"type": "position", "time": 57220, "x": null, "y": 0.51}, {"type": "keyup", "time": 57265, "key": " ", "keyCode": 32}, {"type": "position", "time": 57270, "x": null, "y": 0.51}, {"type": "position", "time": 57320, "x": null, "y": 0.51}, {"type": "position", "time": 57370, "x": null, "y": 0.51}, {"type": "keyup", "time": 57401, "key": "D", "keyCode": 68}, {"type": "position", "time": 57420, "x": null, "y": 0.51}, {"type": "position", "time": 57470, "x": null, "y": 0.51}, {"type": "position", "time": 57520, "x": null, "y": 0.51}, {"type": "keyup", "time": 57544, "key": "I", "keyCode": 73}, {"type": "position", "time": 57570, "x": null, "y": 0.51}, {"type": "keyup", "time": 57573, "key": "D", "keyCode": 68}, {"type": "position", "time": 57621, "x": null, "y": 0.51}, {"type": "position", "time": 57670, "x": null, "y": 0.51}, {"type": "position", "time": 57720, "x": null, "y": 0.51}, {"type": "keyup", "time": 57728, "key": " ", "keyCode": 32}, {"type": "position", "time": 57770, "x": null, "y": 0.51}, {"type": "position", "time": 57819, "x": null, "y": 0.51}, {"type": "keyup", "time": 57834, "key": "N", "keyCode": 78}, {"type": "position", "time": 57870, "x": null, "y": 0.51}, {"type": "keyup", "time": 57909, "key": "O", "keyCode": 79}, {"type": "position", "time": 57920, "x": null, "y": 0.51}, {"type": "position", "time": 57970, "x": null, "y": 0.51}, {"type": "keyup", "time": 57985, "key": "T", "keyCode": 84}, {"type": "position", "time": 58020, "x": null, "y": 0.51}, {"type": "position", "time": 58070, "x": null, "y": 0.51}, {"type": "keyup", "time": 58096, "key": " ", "keyCode": 32}, {"type": "position", "time": 58120, "x": null, "y": 0.51}, {"type": "position", "time": 58172, "x": null, "y": 0.51}, {"type": "keyup", "time": 58214, "key": "J", "keyCode": 74}, {"type": "position", "time": 58220, "x": null, "y": 0.51}, {"type": "position", "time": 58270, "x": null, "y": 0.51}, {"type": "keyup", "time": 58302, "key": "O", "keyCode": 79}, {"type": "position", "time": 58320, "x": null, "y": 0.51}, {"type": "position", "time": 58370, "x": null, "y": 0.51}, {"type": "keyup", "time": 58376, "key": "H", "keyCode": 72}, {"type": "position", "time": 58424, "x": null, "y": 0.51}, {"type": "position", "time": 58470, "x": null, "y": 0.51}, {"type": "position", "time": 58520, "x": null, "y": 0.51}, {"type": "keyup", "time": 58557, "key": " ", "keyCode": 32}, {"type": "position", "time": 58570, "x": null, "y": 0.51}, {"type": "position", "time": 58620, "x": null, "y": 0.51}, {"type": "position", "time": 58670, "x": null, "y": 0.51}, {"type": "position", "time": 58720, "x": null, "y": 0.51}, {"type": "position", "time": 58770, "x": null, "y": 0.51}, {"type": "position", "time": 58820, "x": null, "y": 0.51}, {"type": "position", "time": 58870, "x": null, "y": 0.51}, {"type": "position", "time": 58920, "x": null, "y": 0.51}, {"type": "position", "time": 58970, "x": null, "y": 0.51}, {"type": "position", "time": 59020, "x": null, "y": 0.51}, {"type": "keyup", "time": 59023, "key": "\b", "keyCode": 8}, {"type": "position", "time": 59070, "x": null, "y": 0.51}, {"type": "position", "time": 59120, "x": null, "y": 0.51}, {"type": "position", "time": 59170, "x": null, "y": 0.51}, {"type": "keyup", "time": 59176, "key": "\b", "keyCode": 8}, {"type": "position", "time": 59220, "x": null, "y": 0.51}, {"type": "position", "time": 59269, "x": null, "y": 0.51}, {"type": "position", "time": 59320, "x": null, "y": 0.51}, {"type": "position", "time": 59370, "x": null, "y": 0.51}, {"type": "keyup", "time": 59408, "key": "G", "keyCode": 71}, {"type": "position", "time": 59420, "x": null, "y": 0.51}, {"type": "position", "time": 59470, "x": null, "y": 0.51}, {"type": "position", "time": 59520, "x": null, "y": 0.51}, {"type": "position", "time": 59570, "x": null, "y": 0.51}, {"type": "keyup", "time": 59594, "key": " ", "keyCode": 32}, {"type": "position", "time": 59620, "x": null, "y": 0.51}, {"type": "position", "time": 59670, "x": null, "y": 0.51}, {"type": "position", "time": 59723, "x": null, "y": 0.51}, {"type": "keyup", "time": 59739, "key": "E", "keyCode": 69}, {"type": "position", "time": 59770, "x": null, "y": 0.51}, {"type": "position", "time": 59820, "x": null, "y": 0.51}, {"type": "keyup", "time": 59827, "key": "N", "keyCode": 78}, {"type": "position", "time": 59869, "x": null, "y": 0.51}, {"type": "position", "time": 59920, "x": null, "y": 0.51}, {"type": "position", "time": 59970, "x": null, "y": 0.51}, {"type": "keyup", "time": 59990, "key": "O", "keyCode": 79}, {"type": "position", "time": 60020, "x": null, "y": 0.51}, {"type": "keyup", "time": 60033, "key": "U", "keyCode": 85}, {"type": "position", "time": 60070, "x": null, "y": 0.51}, {"type": "position", "time": 60120, "x": null, "y": 0.51}, {"type": "keyup", "time": 60122, "key": "G", "keyCode": 71}, {"type": "position", "time": 60170, "x": null, "y": 0.51}, {"type": "keyup", "time": 60183, "key": "H", "keyCode": 72}, {"type": "position", "time": 60220, "x": null, "y": 0.51}, {"type": "position", "time": 60270, "x": null, "y": 0.51}, {"type": "position", "time": 60320, "x": null, "y": 0.51}, {"type": "position", "time": 60370, "x": null, "y": 0.51}, {"type": "position", "time": 60420, "x": null, "y": 0.51}, {"type": "position", "time": 60471, "x": null, "y": 0.51}, {"type": "position", "time": 60520, "x": null, "y": 0.51}, {"type": "position", "time": 60570, "x": null, "y": 0.51}, {"type": "position", "time": 60620, "x": null, "y": 0.51}, {"type": "position", "time": 60670, "x": null, "y": 0.51}, {"type": "position", "time": 60724, "x": null, "y": 0.5216666666666666}, {"type": "position", "time": 60774, "x": null, "y": 0.5483333333333333}, {"type": "position", "time": 60823, "x": null, "y": 0.5616666666666666}, {"type": "position", "time": 60873, "x": null, "y": 0.5783333333333334}, {"type": "position", "time": 60924, "x": null, "y": 0.5883333333333334}, {"type": "position", "time": 60977, "x": null, "y": 0.6033333333333334}, {"type": "position", "time": 61020, "x": null, "y": 0.6033333333333334}, {"type": "click", "time": 61066, "x": null, "y": 0.6033333333333334}, {"type": "position", "time": 61073, "x": null, "y": 0.6033333333333334}, {"type": "position", "time": 61120, "x": null, "y": 0.6033333333333334}, {"type": "position", "time": 61170, "x": null, "y": 0.6033333333333334}, {"type": "position", "time": 61251, "x": null, "y": 0.6033333333333334}, {"type": "position", "time": 61270, "x": null, "y": 0.6033333333333334}, {"type": "position", "time": 61320, "x": null, "y": 0.6033333333333334}, {"type": "position", "time": 61371, "x": null, "y": 0.6033333333333334}, {"type": "position", "time": 61420, "x": null, "y": 0.6033333333333334}, {"type": "position", "time": 61470, "x": null, "y": 0.6033333333333334}, {"type": "position", "time": 61520, "x": null, "y": 0.6033333333333334}, {"type": "position", "time": 61573, "x": null, "y": 0.445}, {"type": "position", "time": 61621, "x": null, "y": 0.295}, {"type": "position", "time": 61671, "x": null, "y": 0.14}, {"type": "position", "time": 61720, "x": null, "y": 0.005}, {"type": "position", "time": 61770, "x": null, "y": 0.005}, {"type": "position", "time": 61820, "x": null, "y": 0.005}, {"type": "position", "time": 61870, "x": null, "y": 0.005}, {"type": "position", "time": 61920, "x": null, "y": 0.005}, {"type": "position", "time": 61970, "x": null, "y": 0.005}, {"type": "position", "time": 62021, "x": null, "y": 0.005}, {"type": "position", "time": 62070, "x": null, "y": 0.005}, {"type": "position", "time": 62121, "x": null, "y": 0.005}, {"type": "position", "time": 62235, "x": null, "y": 0.005}, {"type": "position", "time": 62627, "x": null, "y": 0.005}, {"type": "position", "time": 62892, "x": null, "y": 0.005}, {"type": "position", "time": 62920, "x": null, "y": 0.005}, {"type": "position", "time": 62970, "x": null, "y": 0.005}, {"type": "position", "time": 63020, "x": null, "y": 0.005}, {"type": "position", "time": 63097, "x": null, "y": 0.005}, {"type": "position", "time": 63121, "x": null, "y": 0.005}, {"type": "position", "time": 63170, "x": null, "y": 0.005}, {"type": "position", "time": 63220, "x": null, "y": 0.005}, {"type": "position", "time": 63272, "x": null, "y": 0.02666666666666667}, {"type": "position", "time": 63324, "x": null, "y": 0.20666666666666667}, {"type": "position",