{"ApprovalTime": "2016-03-10T20:45:27Z", "SubmitTime": "2016-03-10T20:44:41Z", "AssignmentId": "3OONKJ5DKCJWE8U4JOJFR3Y9WFIOBM", "HITId": "38G0E1M85M53D7EEUOHN21OJ7HQVU5", "answers": {"data": {"trials": [{"story": "coffee", "time": 11789, "name": "Morgan", "rt": 2486, "blocknum": 0, "qtype": "probability", "response": 0.74, "trialnum": 1, "gender": "female", "qnum": 0}, {"story": "coffee", "time": 11789, "name": "Morgan", "rt": 2486, "blocknum": 0, "qtype": "ungrammatical", "trialnum": 1, "gender": "female", "qnum": 0}, {"story": "coffee", "time": 17817, "name": "Emma", "rt": 6026, "blocknum": 0, "qtype": "explanation", "response": "not sure", "trialnum": 2, "gender": "female", "qnum": 1}, {"story": "coffee", "time": 20271, "name": "Emma", "rt": 2447, "blocknum": 0, "qtype": "probability", "response": 0.58, "trialnum": 3, "gender": "female", "qnum": 2}, {"story": "coffee", "time": 20271, "name": "Emma", "rt": 2447, "blocknum": 0, "qtype": "ungrammatical", "trialnum": 3, "gender": "female", "qnum": 2}, {"story": "coffee", "time": 21358, "name": "Devin", "rt": 1081, "blocknum": 0, "qtype": "probability", "response": 0.28, "trialnum": 4, "gender": "male", "qnum": 3}, {"story": "coffee", "time": 21358, "name": "Devin", "rt": 1081, "blocknum": 0, "qtype": "ungrammatical", "response": false, "trialnum": 4, "gender": "male", "qnum": 3}, {"story": "coffee", "time": 22892, "name": "Haley", "rt": 1529, "blocknum": 0, "qtype": "probability", "response": 0.88, "trialnum": 5, "gender": "female", "qnum": 4}, {"story": "coffee", "time": 22892, "name": "Haley", "rt": 1529, "blocknum": 0, "qtype": "ungrammatical", "response": false, "trialnum": 5, "gender": "female", "qnum": 4}, {"story": "coffee", "time": 24728, "name": "Katherine", "rt": 1832, "blocknum": 0, "qtype": "probability", "response": 0.82, "trialnum": 6, "gender": "female", "qnum": 5}, {"story": "coffee", "time": 24728, "name": "Katherine", "rt": 1832, "blocknum": 0, "qtype": "ungrammatical", "response": false, "trialnum": 6, "gender": "female", "qnum": 5}, {"story": "insomnia", "time": 25483, "name": "Maria", "rt": 749, "blocknum": 1, "qtype": "probability", "response": 0.8, "trialnum": 8, "gender": "female", "qnum": 0}, {"story": "insomnia", "time": 25483, "name": "Maria", "rt": 749, "blocknum": 1, "qtype": "ungrammatical", "trialnum": 8, "gender": "female", "qnum": 0}, {"story": "insomnia", "time": 32811, "name": "Brooke", "rt": 7327, "blocknum": 1, "qtype": "explanation", "response": "doesn't make sense", "trialnum": 9, "gender": "female", "qnum": 1}, {"story": "insomnia", "time": 33984, "name": "Brooke", "rt": 1170, "blocknum": 1, "qtype": "probability", "response": 0.62, "trialnum": 10, "gender": "female", "qnum": 2}, {"story": "insomnia", "time": 33984, "name": "Brooke", "rt": 1170, "blocknum": 1, "qtype": "ungrammatical", "trialnum": 10, "gender": "female", "qnum": 2}, {"story": "insomnia", "time": 34874, "name": "Nathan", "rt": 885, "blocknum": 1, "qtype": "probability", "response": 0.23, "trialnum": 11, "gender": "male", "qnum": 3}, {"story": "insomnia", "time": 34874, "name": "Nathan", "rt": 885, "blocknum": 1, "qtype": "ungrammatical", "response": false, "trialnum": 11, "gender": "male", "qnum": 3}, {"story": "insomnia", "time": 35529, "name": "Kelsey", "rt": 651, "blocknum": 1, "qtype": "probability", "response": 0.47, "trialnum": 12, "gender": "female", "qnum": 4}, {"story": "insomnia", "time": 35529, "name": "Kelsey", "rt": 651, "blocknum": 1, "qtype": "ungrammatical", "response": false, "trialnum": 12, "gender": "female", "qnum": 4}, {"story": "insomnia", "time": 36111, "name": "Savannah", "rt": 579, "blocknum": 1, "qtype": "probability", "response": 0.76, "trialnum": 13, "gender": "female", "qnum": 5}, {"story": "insomnia", "time": 36111, "name": "Savannah", "rt": 579, "blocknum": 1, "qtype": "ungrammatical", "response": false, "trialnum": 13, "gender": "female", "qnum": 5}, {"story": "guitar", "time": 37104, "name": "Jeremy", "rt": 990, "blocknum": 2, "qtype": "probability", "response": 0.84, "trialnum": 15, "gender": "male", "qnum": 0}, {"story": "guitar", "time": 37104, "name": "Jeremy", "rt": 990, "blocknum": 2, "qtype": "ungrammatical", "trialnum": 15, "gender": "male", "qnum": 0}, {"story": "guitar", "time": 43661, "name": "Patrick", "rt": 6556, "blocknum": 2, "qtype": "explanation", "response": "He wasn't creative", "trialnum": 16, "gender": "male", "qnum": 1}, {"story": "guitar", "time": 60178, "name": "Patrick", "rt": 16514, "blocknum": 2, "qtype": "probability", "response": 0.24, "trialnum": 17, "gender": "male", "qnum": 2}, {"story": "guitar", "time": 60178, "name": "Patrick", "rt": 16514, "blocknum": 2, "qtype": "ungrammatical", "trialnum": 17, "gender": "male", "qnum": 2}, {"story": "guitar", "time": 60984, "name": "Kathryn", "rt": 803, "blocknum": 2, "qtype": "probability", "response": 0.71, "trialnum": 18, "gender": "female", "qnum": 3}, {"story": "guitar", "time": 60984, "name": "Kathryn", "rt": 803, "blocknum": 2, "qtype": "ungrammatical", "response": false, "trialnum": 18, "gender": "female", "qnum": 3}, {"story": "guitar", "time": 61675, "name": "Luis", "rt": 689, "blocknum": 2, "qtype": "probability", "response": 0.58, "trialnum": 19, "gender": "male", "qnum": 4}, {"story": "guitar", "time": 61675, "name": "Luis", "rt": 689, "blocknum": 2, "qtype": "ungrammatical", "response": false, "trialnum": 19, "gender": "male", "qnum": 4}, {"story": "guitar", "time": 62307, "name": "Ian", "rt": 629, "blocknum": 2, "qtype": "probability", "response": 0.85, "trialnum": 20, "gender": "male", "qnum": 5}, {"story": "guitar", "time": 62307, "name": "Ian", "rt": 629, "blocknum": 2, "qtype": "ungrammatical", "response": false, "trialnum": 20, "gender": "male", "qnum": 5}, {"story": "reading", "time": 63006, "name": "Natalie", "rt": 691, "blocknum": 3, "qtype": "probability", "response": 0.36, "trialnum": 22, "gender": "female", "qnum": 0}, {"story": "reading", "time": 63006, "name": "Natalie", "rt": 691, "blocknum": 3, "qtype": "ungrammatical", "trialnum": 22, "gender": "female", "qnum": 0}, {"story": "reading", "time": 70893, "name": "Danielle", "rt": 7885, "blocknum": 3, "qtype": "explanation", "response": "she's on ibuprofen", "trialnum": 23, "gender": "female", "qnum": 1}, {"story": "reading", "time": 71932, "name": "Danielle", "rt": 1035, "blocknum": 3, "qtype": "probability", "response": 0.55, "trialnum": 24, "gender": "female", "qnum": 2}, {"story": "reading", "time": 71932, "name": "Danielle", "rt": 1035, "blocknum": 3, "qtype": "ungrammatical", "trialnum": 24, "gender": "female", "qnum": 2}, {"story": "reading", "time": 72909, "name": "Justin", "rt": 974, "blocknum": 3, "qtype": "probability", "response": 0.7, "trialnum": 25, "gender": "male", "qnum": 3}, {"story": "reading", "time": 72909, "name": "Justin", "rt": 974, "blocknum": 3, "qtype": "ungrammatical", "response": false, "trialnum": 25, "gender": "male", "qnum": 3}, {"story": "reading", "time": 73485, "name": "Destiny", "rt": 573, "blocknum": 3, "qtype": "probability", "response": 0.3, "trialnum": 26, "gender": "female", "qnum": 4}, {"story": "reading", "time": 73485, "name": "Destiny", "rt": 573, "blocknum": 3, "qtype": "ungrammatical", "response": false, "trialnum": 26, "gender": "female", "qnum": 4}, {"story": "reading", "time": 73948, "name": "Amanda", "rt": 460, "blocknum": 3, "qtype": "probability", "response": 0.6, "trialnum": 27, "gender": "female", "qnum": 5}, {"story": "reading", "time": 73948, "name": "Amanda", "rt": 460, "blocknum": 3, "qtype": "ungrammatical", "response": false, "trialnum": 27, "gender": "female", "qnum": 5}, {"story": "cooking", "time": 74557, "name": "Dylan", "rt": 605, "blocknum": 4, "qtype": "probability", "response": 0.52, "trialnum": 29, "gender": "male", "qnum": 0}, {"story": "cooking", "time": 74557, "name": "Dylan", "rt": 605, "blocknum": 4, "qtype": "ungrammatical", "trialnum": 29, "gender": "male", "qnum": 0}, {"story": "cooking", "time": 79223, "name": "Jacqueline", "rt": 4665, "blocknum": 4, "qtype": "explanation", "response": "she's antisocial", "trialnum": 30, "gender": "female", "qnum": 1}, {"story": "cooking", "time": 80004, "name": "Jacqueline", "rt": 779, "blocknum": 4, "qtype": "probability", "response": 0.66, "trialnum": 31, "gender": "female", "qnum": 2}, {"story": "cooking", "time": 80004, "name": "Jacqueline", "rt": 779, "blocknum": 4, "qtype": "ungrammatical", "trialnum": 31, "gender": "female", "qnum": 2}, {"story": "cooking", "time": 80900, "name": "Joseph", "rt": 892, "blocknum": 4, "qtype": "probability", "response": 0.59, "trialnum": 32, "gender": "male", "qnum": 3}, {"story": "cooking", "time": 80900, "name": "Joseph", "rt": 892, "blocknum": 4, "qtype": "ungrammatical", "response": false, "trialnum": 32, "gender": "male", "qnum": 3}, {"story": "cooking", "time": 81412, "name": "Benjamin", "rt": 509, "blocknum": 4, "qtype": "probability", "response": 0.75, "trialnum": 33, "gender": "male", "qnum": 4}, {"story": "cooking", "time": 81412, "name": "Benjamin", "rt": 509, "blocknum": 4, "qtype": "ungrammatical", "response": false, "trialnum": 33, "gender": "male", "qnum": 4}, {"story": "cooking", "time": 82036, "name": "Jennifer", "rt": 621, "blocknum": 4, "qtype": "probability", "response": 0.42, "trialnum": 34, "gender": "female", "qnum": 5}, {"story": "cooking", "time": 82036, "name": "Jennifer", "rt": 621, "blocknum": 4, "qtype": "ungrammatical", "response": false, "trialnum": 34, "gender": "female", "qnum": 5}, {"story": "Japan", "time": 82882, "name": "Sarah", "rt": 843, "blocknum": 5, "qtype": "probability", "response": 0.71, "trialnum": 36, "gender": "female", "qnum": 0}, {"story": "Japan", "time": 82882, "name": "Sarah", "rt": 843, "blocknum": 5, "qtype": "ungrammatical", "trialnum": 36, "gender": "female", "qnum": 0}, {"story": "Japan", "time": 89418, "name": "Kelly", "rt": 6534, "blocknum": 5, "qtype": "explanation", "response": "she's deaf", "trialnum": 37, "gender": "female", "qnum": 1}, {"story": "Japan", "time": 90295, "name": "Kelly", "rt": 874, "blocknum": 5, "qtype": "probability", "response": 0.62, "trialnum": 38, "gender": "female", "qnum": 2}, {"story": "Japan", "time": 90295, "name": "Kelly", "rt": 874, "blocknum": 5, "qtype": "ungrammatical", "trialnum": 38, "gender": "female", "qnum": 2}, {"story": "Japan", "time": 91171, "name": "Jason", "rt": 872, "blocknum": 5, "qtype": "probability", "response": 0.4, "trialnum": 39, "gender": "male", "qnum": 3}, {"story": "Japan", "time": 91171, "name": "Jason", "rt": 872, "blocknum": 5, "qtype": "ungrammatical", "response": false, "trialnum": 39, "gender": "male", "qnum": 3}, {"story": "Japan", "time": 91894, "name": "Joshua", "rt": 721, "blocknum": 5, "qtype": "probability", "response": 0.74, "trialnum": 40, "gender": "male", "qnum": 4}, {"story": "Japan", "time": 91894, "name": "Joshua", "rt": 721, "blocknum": 5, "qtype": "ungrammatical", "response": false, "trialnum": 40, "gender": "male", "qnum": 4}, {"story": "Japan", "time": 92437, "name": "Scott", "rt": 541, "blocknum": 5, "qtype": "probability", "response": 0.82, "trialnum": 41, "gender": "male", "qnum": 5}, {"story": "Japan", "time": 92437, "name": "Scott", "rt": 541, "blocknum": 5, "qtype": "ungrammatical", "response": false, "trialnum": 41, "gender": "male", "qnum": 5}, {"story": "beach", "time": 93276, "name": "Miranda", "rt": 836, "blocknum": 6, "qtype": "probability", "response": 0.73, "trialnum": 43, "gender": "female", "qnum": 0}, {"story": "beach", "time": 93276, "name": "Miranda", "rt": 836, "blocknum": 6, "qtype": "ungrammatical", "trialnum": 43, "gender": "female", "qnum": 0}, {"story": "beach", "time": 98085, "name": "Alexandra", "rt": 4807, "blocknum": 6, "qtype": "explanation", "response": "sharks", "trialnum": 44, "gender": "female", "qnum": 1}, {"story": "beach", "time": 99171, "name": "Alexandra", "rt": 1083, "blocknum": 6, "qtype": "probability", "response": 0.8, "trialnum": 45, "gender": "female", "qnum": 2}, {"story": "beach", "time": 99171, "name": "Alexandra", "rt": 1083, "blocknum": 6, "qtype": "ungrammatical", "trialnum": 45, "gender": "female", "qnum": 2}, {"story": "beach", "time": 100047, "name": "Katie", "rt": 873, "blocknum": 6, "qtype": "probability", "response": 0.44, "trialnum": 46, "gender": "female", "qnum": 3}, {"story": "beach", "time": 100047, "name": "Katie", "rt": 873, "blocknum": 6, "qtype": "ungrammatical", "response": false, "trialnum": 46, "gender": "female", "qnum": 3}, {"story": "beach", "time": 100642, "name": "Jose", "rt": 592, "blocknum": 6, "qtype": "probability", "response": 0.5, "trialnum": 47, "gender": "male", "qnum": 4}, {"story": "beach", "time": 100642, "name": "Jose", "rt": 592, "blocknum": 6, "qtype": "ungrammatical", "response": false, "trialnum": 47, "gender": "male", "qnum": 4}, {"story": "beach", "time": 101164, "name": "Eric", "rt": 519, "blocknum": 6, "qtype": "probability", "response": 0.83, "trialnum": 48, "gender": "male", "qnum": 5}, {"story": "beach", "time": 101164, "name": "Eric", "rt": 519, "blocknum": 6, "qtype": "ungrammatical", "response": false, "trialnum": 48, "gender": "male", "qnum": 5}, {"story": "painting", "time": 101883, "name": "Caleb", "rt": 715, "blocknum": 7, "qtype": "probability", "response": 0.38, "trialnum": 50, "gender": "male", "qnum": 0}, {"story": "painting", "time": 101883, "name": "Caleb", "rt": 715, "blocknum": 7, "qtype": "ungrammatical", "trialnum": 50, "gender": "male", "qnum": 0}, {"story": "painting", "time": 106302, "name": "Heather", "rt": 4417, "blocknum": 7, "qtype": "explanation", "response": "she's stupid", "trialnum": 51, "gender": "female", "qnum": 1}, {"story": "painting", "time": 107684, "name": "Heather", "rt": 1380, "blocknum": 7, "qtype": "probability", "response": 0.74, "trialnum": 52, "gender": "female", "qnum": 2}, {"story": "painting", "time": 107684, "name": "Heather", "rt": 1380, "blocknum": 7, "qtype": "ungrammatical", "trialnum": 52, "gender": "female", "qnum": 2}, {"story": "painting", "time": 108912, "name": "Kayla", "rt": 1224, "blocknum": 7, "qtype": "probability", "response": 0.88, "trialnum": 53, "gender": "female", "qnum": 3}, {"story": "painting", "time": 108912, "name": "Kayla", "rt": 1224, "blocknum": 7, "qtype": "ungrammatical", "response": false, "trialnum": 53, "gender": "female", "qnum": 3}, {"story": "painting", "time": 110248, "name": "David", "rt": 1332, "blocknum": 7, "qtype": "probability", "response": 0.26, "trialnum": 54, "gender": "male", "qnum": 4}, {"story": "painting", "time": 110248, "name": "David", "rt": 1332, "blocknum": 7, "qtype": "ungrammatical", "response": false, "trialnum": 54, "gender": "male", "qnum": 4}, {"story": "painting", "time": 110882, "name": "Tyler", "rt": 632, "blocknum": 7, "qtype": "probability", "response": 0.32, "trialnum": 55, "gender": "male", "qnum": 5}, {"story": "painting", "time": 110882, "name": "Tyler", "rt": 632, "blocknum": 7, "qtype": "ungrammatical", "response": false, "trialnum": 55, "gender": "male", "qnum": 5}, {"story": "fitness", "time": 111745, "name": "James", "rt": 860, "blocknum": 8, "qtype": "probability", "response": 0.33, "trialnum": 57, "gender": "male", "qnum": 0}, {"story": "fitness", "time": 111745, "name": "James", "rt": 860, "blocknum": 8, "qtype": "ungrammatical", "trialnum": 57, "gender": "male", "qnum": 0}, {"story": "fitness", "time": 117493, "name": "Jessica", "rt": 5747, "blocknum": 8, "qtype": "explanation", "response": "he loves food", "trialnum": 58, "gender": "female", "qnum": 1}, {"story": "fitness", "time": 118842, "name": "Jessica", "rt": 1347, "blocknum": 8, "qtype": "probability", "response": 0.85, "trialnum": 59, "gender": "female", "qnum": 2}, {"story": "fitness", "time": 118842, "name": "Jessica", "rt": 1347, "blocknum": 8, "qtype": "ungrammatical", "trialnum": 59, "gender": "female", "qnum": 2}, {"story": "fitness", "time": 119645, "name": "Mark", "rt": 800, "blocknum": 8, "qtype": "probability", "response": 0.63, "trialnum": 60, "gender": "male", "qnum": 3}, {"story": "fitness", "time": 119645, "name": "Mark", "rt": 800, "blocknum": 8, "qtype": "ungrammatical", "response": false, "trialnum": 60, "gender": "male", "qnum": 3}, {"story": "fitness", "time": 120193, "name": "Anthony", "rt": 543, "blocknum": 8, "qtype": "probability", "response": 0.39, "trialnum": 61, "gender": "male", "qnum": 4}, {"story": "fitness", "time": 120193, "name": "Anthony", "rt": 543, "blocknum": 8, "qtype": "ungrammatical", "response": false, "trialnum": 61, "gender": "male", "qnum": 4}, {"story": "fitness", "time": 120739, "name": "Jordan", "rt": 543, "blocknum": 8, "qtype": "probability", "response": 0.7, "trialnum": 62, "gender": "male", "qnum": 5}, {"story": "fitness", "time": 120739, "name": "Jordan", "rt": 543, "blocknum": 8, "qtype": "ungrammatical", "response": false, "trialnum": 62, "gender": "male", "qnum": 5}], "events": [{"type": "position", "time": 290, "x": 0, "y": 0}, {"type": "position", "time": 1292, "x": 0, "y": 0}, {"type": "position", "time": 2291, "x": 0, "y": 0}, {"type": "position", "time": 3297, "x": 0, "y": 0}, {"type": "position", "time": 4294, "x": 0, "y": 0}, {"type": "position", "time": 5290, "x": 0, "y": 0}, {"type": "position", "time": 5905, "x": 0, "y": 0}, {"type": "position", "time": 5953, "x": 0, "y": 0}, {"type": "position", "time": 6003, "x": 0, "y": 0}, {"type": "position", "time": 6053, "x": 0, "y": 0}, {"type": "position", "time": 6103, "x": 0, "y": 0}, {"type": "position", "time": 6153, "x": 0, "y": 0}, {"type": "position", "time": 6203, "x": 0, "y": 0}, {"type": "position", "time": 6253, "x": 0, "y": 0}, {"type": "position", "time": 6303, "x": 0, "y": 0}, {"type": "position", "time": 6353, "x": 0, "y": 0}, {"type": "position", "time": 6403, "x": 0, "y": 0}, {"type": "position", "time": 6454, "x": 0, "y": 0}, {"type": "position", "time": 6503, "x": 0, "y": 0}, {"type": "position", "time": 6553, "x": 0, "y": 0}, {"type": "position", "time": 6603, "x": 0, "y": 0}, {"type": "position", "time": 6654, "x": 0, "y": 0}, {"type": "position", "time": 6704, "x": 0, "y": 0}, {"type": "position", "time": 6753, "x": 0, "y": 0}, {"type": "position", "time": 6804, "x": 0, "y": 0}, {"type": "position", "time": 6854, "x": 0, "y": 0}, {"type": "position", "time": 6904, "x": 0, "y": 0}, {"type": "position", "time": 6955, "x": 0, "y": 0}, {"type": "position", "time": 7005, "x": 0, "y": 0}, {"type": "position", "time": 7054, "x": 0, "y": 0}, {"type": "position", "time": 7104, "x": 0, "y": 0}, {"type": "position", "time": 7154, "x": 0, "y": 0}, {"type": "position", "time": 7204, "x": 0, "y": 0}, {"type": "position", "time": 7254, "x": 0, "y": 0}, {"type": "position", "time": 7303, "x": 0, "y": 0}, {"type": "position", "time": 7353, "x": 0, "y": 0}, {"type": "position", "time": 7404, "x": 0, "y": 0}, {"type": "position", "time": 7453, "x": 0, "y": 0}, {"type": "position", "time": 7504, "x": 0, "y": 0}, {"type": "position", "time": 7554, "x": 0, "y": 0}, {"type": "position", "time": 7603, "x": 0, "y": 0}, {"type": "position", "time": 7653, "x": 0, "y": 0}, {"type": "position", "time": 7704, "x": 0, "y": 0}, {"type": "position", "time": 7754, "x": 0, "y": 0}, {"type": "position", "time": 7804, "x": 0, "y": 0}, {"type": "position", "time": 7854, "x": 0, "y": 0}, {"type": "position", "time": 7904, "x": 0, "y": 0}, {"type": "position", "time": 7953, "x": 0, "y": 0}, {"type": "position", "time": 8004, "x": 0, "y": 0}, {"type": "position", "time": 8053, "x": 0, "y": 0}, {"type": "position", "time": 8103, "x": 0, "y": 0}, {"type": "position", "time": 8153, "x": 0, "y": 0}, {"type": "position", "time": 8204, "x": 0, "y": 0}, {"type": "position", "time": 8254, "x": 0, "y": 0}, {"type": "position", "time": 8304, "x": 0, "y": 0}, {"type": "position", "time": 8354, "x": 0, "y": 0}, {"type": "position", "time": 8404, "x": 0, "y": 0}, {"type": "position", "time": 8454, "x": 0, "y": 0}, {"type": "position", "time": 8504, "x": 0, "y": 0}, {"type": "position", "time": 8555, "x": 0, "y": 0}, {"type": "position", "time": 8605, "x": 0, "y": 0}, {"type": "position", "time": 8654, "x": 0, "y": 0}, {"type": "position", "time": 8703, "x": 0, "y": 0}, {"type": "position", "time": 8753, "x": 0, "y": 0}, {"type": "position", "time": 8803, "x": 0, "y": 0}, {"type": "position", "time": 8853, "x": 0, "y": 0}, {"type": "position", "time": 8903, "x": 0, "y": 0}, {"type": "position", "time": 8953, "x": 0, "y": 0}, {"type": "position", "time": 9003, "x": 0, "y": 0}, {"type": "position", "time": 9053, "x": 0, "y": 0}, {"type": "position", "time": 9104, "x": 0, "y": 0}, {"type": "position", "time": 9154, "x": 0, "y": 0}, {"type": "position", "time": 9203, "x": 0, "y": 0}, {"type": "position", "time": 9253, "x": 0, "y": 0}, {"type": "click", "time": 9314, "x": 0.8902472884405466, "y": 0.4835124102129959}, {"type": "position", "time": 9319, "x": 0.8902472884405466, "y": 0.4835124102129959}, {"type": "position", "time": 9354, "x": 0.8902472884405466, "y": 0.4835124102129959}, {"type": "position", "time": 9403, "x": 0.8902472884405466, "y": 0.4835124102129959}, {"type": "position", "time": 9454, "x": 0.8902472884405466, "y": 0.4835124102129959}, {"type": "position", "time": 9503, "x": 0.8902472884405466, "y": 0.4835124102129959}, {"type": "position", "time": 9553, "x": 0.8902472884405466, "y": 0.4835124102129959}, {"type": "position", "time": 9603, "x": 0.8902472884405466, "y": 0.4835124102129959}, {"type": "position", "time": 9655, "x": 0.8902472884405466, "y": 0.4835124102129959}, {"type": "position", "time": 9704, "x": 0.8902472884405466, "y": 0.4835124102129959}, {"type": "position", "time": 9754, "x": 0.8902472884405466, "y": 0.4835124102129959}, {"type": "position", "time": 9804, "x": 0.8902472884405466, "y": 0.4835124102129959}, {"type": "position", "time": 9854, "x": 0.8902472884405466, "y": 0.4835124102129959}, {"type": "position", "time": 9904, "x": 0.8902472884405466, "y": 0.4835124102129959}, {"type": "position", "time": 9954, "x": 0.8902472884405466, "y": 0.4835124102129959}, {"type": "position", "time": 10004, "x": 0.8902472884405466, "y": 0.4835124102129959}, {"type": "position", "time": 10054, "x": 0.8902472884405466, "y": 0.4835124102129959}, {"type": "position", "time": 10104, "x": 0.8902472884405466, "y": 0.4835124102129959}, {"type": "position", "time": 10153, "x": 0.8902472884405466, "y": 0.4835124102129959}, {"type": "position", "time": 10203, "x": 0.8902472884405466, "y": 0.4835124102129959}, {"type": "position", "time": 10253, "x": 0.8902472884405466, "y": 0.4835124102129959}, {"type": "position", "time": 10303, "x": 0.8902472884405466, "y": 0.4835124102129959}, {"type": "position", "time": 10353, "x": 0.8902472884405466, "y": 0.4835124102129959}, {"type": "position", "time": 10403, "x": 0.8902472884405466, "y": 0.4835124102129959}, {"type": "position", "time": 10453, "x": 0.8902472884405466, "y": 0.4835124102129959}, {"type": "position", "time": 10504, "x": 0.8902472884405466, "y": 0.4835124102129959}, {"type": "position", "time": 10553, "x": 0.8902472884405466, "y": 0.4835124102129959}, {"type": "position", "time": 10603, "x": 0.8902472884405466, "y": 0.4835124102129959}, {"type": "position", "time": 10654, "x": 0.8902472884405466, "y": 0.4835124102129959}, {"type": "position", "time": 10704, "x": 0.8902472884405466, "y": 0.4835124102129959}, {"type": "position", "time": 10753, "x": 0.8902472884405466, "y": 0.4835124102129959}, {"type": "position", "time": 10803, "x": 0.8902472884405466, "y": 0.4835124102129959}, {"type": "position", "time": 10853, "x": 0.8902472884405466, "y": 0.4835124102129959}, {"type": "slider", "time": 10878, "value": 0.74}, {"type": "click", "time": 10882, "x": 1.0440400082132815, "y": 0.5235272303685542}, {"type": "position", "time": 10903, "x": 1.0440400082132815, "y": 0.5235272303685542}, {"type": "position", "time": 10953, "x": 1.0440400082132815, "y": 0.5235272303685542}, {"type": "position", "time": 11005, "x": 1.0440400082132815, "y": 0.5235272303685542}, {"type": "position", "time": 11054, "x": 1.0440400082132815, "y": 0.5235272303685542}, {"type": "position", "time": 11104, "x": 1.0440400082132815, "y": 0.5235272303685542}, {"type": "position", "time": 11154, "x": 1.0440400082132815, "y": 0.5235272303685542}, {"type": "position", "time": 11204, "x": 1.0440400082132815, "y": 0.5235272303685542}, {"type": "position", "time": 11254, "x": 1.0440400082132815, "y": 0.5235272303685542}, {"type": "position", "time": 11304, "x": 1.0440400082132815, "y": 0.5235272303685542}, {"type": "position", "time": 11354, "x": 1.0440400082132815, "y": 0.5235272303685542}, {"type": "position", "time": 11404, "x": 1.0440400082132815, "y": 0.5235272303685542}, {"type": "position", "time": 11454, "x": 1.0440400082132815, "y": 0.5235272303685542}, {"type": "position", "time": 11504, "x": 1.0440400082132815, "y": 0.5235272303685542}, {"type": "position", "time": 11554, "x": 1.0440400082132815, "y": 0.5235272303685542}, {"type": "position", "time": 11603, "x": 1.0440400082132815, "y": 0.5235272303685542}, {"type": "position", "time": 11653, "x": 1.0440400082132815, "y": 0.5235272303685542}, {"type": "position", "time": 11703, "x": 1.0440400082132815, "y": 0.5235272303685542}, {"type": "position", "time": 11753, "x": 1.0440400082132815, "y": 0.5235272303685542}, {"type": "click", "time": 11793, "x": 0.8902472884405466, "y": 0.6385698383157842}, {"type": "position", "time": 11803, "x": 0.8902472884405466, "y": 0.6385698383157842}, {"type": "position", "time": 11853, "x": 0.8902472884405466, "y": 0.6385698383157842}, {"type": "position", "time": 11903, "x": 0.8902472884405466, "y": 0.6385698383157842}, {"type": "position", "time": 11953, "x": 0.8902472884405466, "y": 0.6385698383157842}, {"type": "position", "time": 12004, "x": 0.8902472884405466, "y": 0.6385698383157842}, {"type": "position", "time": 12053, "x": 0.8902472884405466, "y": 0.6385698383157842}, {"type": "position", "time": 12103, "x": 0.8902472884405466, "y": 0.6385698383157842}, {"type": "position", "time": 12154, "x": 0.8902472884405466, "y": 0.6385698383157842}, {"type": "click", "time": 12194, "x": 0.9165045820602817, "y": 0.5068543886370716}, {"type": "position", "time": 12203, "x": 0.9165045820602817, "y": 0.5068543886370716}, {"type": "position", "time": 12253, "x": 0.9165045820602817, "y": 0.5068543886370716}, {"type": "position", "time": 12303, "x": 0.9165045820602817, "y": 0.5068543886370716}, {"type": "position", "time": 12353, "x": 0.9165045820602817, "y": 0.5068543886370716}, {"type": "position", "time": 12403, "x": 0.9165045820602817, "y": 0.5068543886370716}, {"type": "position", "time": 12454, "x": 0.9165045820602817, "y": 0.5068543886370716}, {"type": "click", "time": 12470, "x": 0.896499025016674, "y": 0.5952204498139294}, {"type": "position", "time": 12504, "x": 0.896499025016674, "y": 0.5952204498139294}, {"type": "position", "time": 12554, "x": 0.896499025016674, "y": 0.5952204498139294}, {"type": "position", "time": 12604, "x": 0.896499025016674, "y": 0.5952204498139294}, {"type": "position", "time": 12654, "x": 0.896499025016674, "y": 0.5952204498139294}, {"type": "position", "time": 12704, "x": 0.896499025016674, "y": 0.5952204498139294}, {"type": "position", "time": 12754, "x": 0.896499025016674, "y": 0.5952204498139294}, {"type": "position", "time": 12804, "x": 0.896499025016674, "y": 0.5952204498139294}, {"type": "position", "time": 12854, "x": 0.896499025016674, "y": 0.5952204498139294}, {"type": "position", "time": 12904, "x": 0.896499025016674, "y": 0.5952204498139294}, {"type": "position", "time": 12954, "x": 0.896499025016674, "y": 0.5952204498139294}, {"type": "position", "time": 13003, "x": 0.896499025016674, "y": 0.5952204498139294}, {"type": "position", "time": 13054, "x": 0.896499025016674, "y": 0.5952204498139294}, {"type": "position", "time": 13103, "x": 0.896499025016674, "y": 0.5952204498139294}, {"type": "position", "time": 13153, "x": 0.896499025016674, "y": 0.5952204498139294}, {"type": "position", "time": 13203, "x": 0.896499025016674, "y": 0.5952204498139294}, {"type": "click", "time": 13219, "x": 1.0065295887565169, "y": 0.5051871044639232}, {"type": "position", "time": 13253, "x": 1.0065295887565169, "y": 0.5051871044639232}, {"type": "position", "time": 13303, "x": 1.0065295887565169, "y": 0.5051871044639232}, {"type": "position", "time": 13353, "x": 1.0065295887565169, "y": 0.5051871044639232}, {"type": "position", "time": 13404, "x": 1.0065295887565169, "y": 0.5051871044639232}, {"type": "position", "time": 13453, "x": 1.0065295887565169, "y": 0.5051871044639232}, {"type": "position", "time": 13504, "x": 1.0065295887565169, "y": 0.5051871044639232}, {"type": "position", "time": 13553, "x": 1.0065295887565169, "y": 0.5051871044639232}, {"type": "position", "time": 13603, "x": 1.0065295887565169, "y": 0.5051871044639232}, {"type": "position", "time": 13654, "x": 1.0065295887565169, "y": 0.5051871044639232}, {"type": "position", "time": 13704, "x": 1.0065295887565169, "y": 0.5051871044639232}, {"type": "position", "time": 13753, "x": 1.0065295887565169, "y": 0.5051871044639232}, {"type": "position", "time": 13804, "x": 1.0065295887565169, "y": 0.5051871044639232}, {"type": "position", "time": 13855, "x": 1.0065295887565169, "y": 0.5051871044639232}, {"type": "position", "time": 13904, "x": 1.0065295887565169, "y": 0.5051871044639232}, {"type": "position", "time": 13954, "x": 1.0065295887565169, "y": 0.5051871044639232}, {"type": "position", "time": 14004, "x": 1.0065295887565169, "y": 0.5051871044639232}, {"type": "position", "time": 14054, "x": 1.0065295887565169, "y": 0.5051871044639232}, {"type": "position", "time": 14104, "x": 1.0065295887565169, "y": 0.5051871044639232}, {"type": "position", "time": 14154, "x": 1.0065295887565169, "y": 0.5051871044639232}, {"type": "position", "time": 14204, "x": 1.0065295887565169, "y": 0.5051871044639232}, {"type": "position", "time": 14254, "x": 1.0065295887565169, "y": 0.5051871044639232}, {"type": "position", "time": 14304, "x": 1.0065295887565169, "y": 0.5051871044639232}, {"type": "position", "time": 14354, "x": 1.0065295887565169, "y": 0.5051871044639232}, {"type": "position", "time": 14404, "x": 1.0065295887565169, "y": 0.5051871044639232}, {"type": "position", "time": 14453, "x": 1.0065295887565169, "y": 0.5051871044639232}, {"type": "position", "time": 14503, "x": 1.0065295887565169, "y": 0.5051871044639232}, {"type": "position", "time": 14553, "x": 1.0065295887565169, "y": 0.5051871044639232}, {"type": "position", "time": 14603, "x": 1.0065295887565169, "y": 0.5051871044639232}, {"type": "position", "time": 14654, "x": 1.0065295887565169, "y": 0.5051871044639232}, {"type": "position", "time": 14704, "x": 1.0065295887565169, "y": 0.5051871044639232}, {"type": "position", "time": 14753, "x": 1.0065295887565169, "y": 0.5051871044639232}, {"type": "position", "time": 14803, "x": 1.0065295887565169, "y": 0.5051871044639232}, {"type": "position", "time": 14853, "x": 1.0065295887565169, "y": 0.5051871044639232}, {"type": "position", "time": 14904, "x": 1.0065295887565169, "y": 0.5051871044639232}, {"type": "position", "time": 14953, "x": 1.0065295887565169, "y": 0.5051871044639232}, {"type": "position", "time": 15004, "x": 1.0065295887565169, "y": 0.5051871044639232}, {"type": "position", "time": 15053, "x": 1.0065295887565169, "y": 0.5051871044639232}, {"type": "position", "time": 15104, "x": 1.0065295887565169, "y": 0.5051871044639232}, {"type": "position", "time": 15153, "x": 1.0065295887565169, "y": 0.5051871044639232}, {"type": "position", "time": 15203, "x": 1.0065295887565169, "y": 0.5051871044639232}, {"type": "position", "time": 15254, "x": 1.0065295887565169, "y": 0.5051871044639232}, {"type": "position", "time": 15304, "x": 1.0065295887565169, "y": 0.5051871044639232}, {"type": "position", "time": 15354, "x": 1.0065295887565169, "y": 0.5051871044639232}, {"type": "position", "time": 15405, "x": 1.0065295887565169, "y": 0.5051871044639232}, {"type": "position", "time": 15454, "x": 1.0065295887565169, "y": 0.5051871044639232}, {"type": "position", "time": 15504, "x": 1.0065295887565169, "y": 0.5051871044639232}, {"type": "position", "time": 15554, "x": 1.0065295887565169, "y": 0.5051871044639232}, {"type": "position", "time": 15604, "x": 1.0065295887565169, "y": 0.5051871044639232}, {"type": "position", "time": 15654, "x": 1.0065295887565169, "y": 0.5051871044639232}, {"type": "position", "time": 15704, "x": 1.0065295887565169, "y": 0.5051871044639232}, {"type": "position", "time": 15754, "x": 1.0065295887565169, "y": 0.5051871044639232}, {"type": "position", "time": 15804, "x": 1.0065295887565169, "y": 0.5051871044639232}, {"type": "position", "time": 15853, "x": 1.0065295887565169, "y": 0.5051871044639232}, {"type": "position", "time": 15903, "x": 1.0065295887565169, "y": 0.5051871044639232}, {"type": "position", "time": 15953, "x": 1.0065295887565169, "y": 0.5051871044639232}, {"type": "position", "time": 16003, "x": 1.0065295887565169, "y": 0.5051871044639232}, {"type": "position", "time": 16053, "x": 1.0065295887565169, "y": 0.5051871044639232}, {"type": "position", "time": 16103, "x": 1.0065295887565169, "y": 0.5051871044639232}, {"type": "position", "time": 16153, "x": 1.0065295887565169, "y": 0.5051871044639232}, {"type": "position", "time": 16203, "x": 1.0065295887565169, "y": 0.5051871044639232}, {"type": "position", "time": 16254, "x": 1.0065295887565169, "y": 0.5051871044639232}, {"type": "position", "time": 16303, "x": 1.0065295887565169, "y": 0.5051871044639232}, {"type": "position", "time": 16353, "x": 1.0065295887565169, "y": 0.5051871044639232}, {"type": "position", "time": 16404, "x": 1.0065295887565169, "y": 0.5051871044639232}, {"type": "position", "time": 16454, "x": 1.0065295887565169, "y": 0.5051871044639232}, {"type": "position", "time": 16504, "x": 1.0065295887565169, "y": 0.5051871044639232}, {"type": "position", "time": 16553, "x": 1.0065295887565169, "y": 0.5051871044639232}, {"type": "position", "time": 16605, "x": 1.0065295887565169, "y": 0.5051871044639232}, {"type": "position", "time": 16654, "x": 1.0065295887565169, "y": 0.5051871044639232}, {"type": "position", "time": 16704, "x": 1.0065295887565169, "y": 0.5051871044639232}, {"type": "position", "time": 16755, "x": 1.0065295887565169, "y": 0.5051871044639232}, {"type": "position", "time": 16804, "x": 1.0065295887565169, "y": 0.5051871044639232}, {"type": "position", "time": 16854, "x": 1.0065295887565169, "y": 0.5051871044639232}, {"type": "keyup", "time": 16894, "key": "N", "keyCode": 78}, {"type": "position", "time": 16904, "x": 1.0065295887565169, "y": 0.5051871044639232}, {"type": "position", "time": 16954, "x": 1.0065295887565169, "y": 0.5051871044639232}, {"type": "position", "time": 17004, "x": 1.0065295887565169, "y": 0.5051871044639232}, {"type": "position", "time": 17055, "x": 1.0065295887565169, "y": 0.5051871044639232}, {"type": "position", "time": 17104, "x": 1.0065295887565169, "y": 0.5051871044639232}, {"type": "keyup", "time": 17126, "key": "O", "keyCode": 79}, {"type": "keyup", "time": 17131, "key": "T", "keyCode": 84}, {"type": "keyup", "time": 17153, "key": " ", "keyCode": 32}, {"type": "position", "time": 17154, "x": 1.0065295887565169, "y": 0.5051871044639232}, {"type": "position", "time": 17204, "x": 1.0065295887565169, "y": 0.5051871044639232}, {"type": "position", "time": 17253, "x": 1.0065295887565169, "y": 0.5051871044639232}, {"type": "position", "time": 17303, "x": 1.0065295887565169, "y": 0.5051871044639232}, {"type": "keyup", "time": 17346, "key": "S", "keyCode": 83}, {"type": "position", "time": 17353, "x": 1.0065295887565169, "y": 0.5051871044639232}, {"type": "position", "time": 17403, "x": 1.0065295887565169, "y": 0.5051871044639232}, {"type": "keyup", "time": 17411, "key": "U", "keyCode": 85}, {"type": "position", "time": 17453, "x": 1.0065295887565169, "y": 0.5051871044639232}, {"type": "keyup", "time": 17496, "key": "R", "keyCode": 82}, {"type": "position", "time": 17503, "x": 1.0065295887565169, "y": 0.5051871044639232}, {"type": "position", "time": 17553, "x": 1.0065295887565169, "y": 0.5051871044639232}, {"type": "position", "time": 17603, "x": 1.0065295887565169, "y": 0.5051871044639232}, {"type": "position", "time": 17654, "x": 1.0065295887565169, "y": 0.5051871044639232}, {"type": "keyup", "time": 17691, "key": "E", "keyCode": 69}, {"type": "position", "time": 17703, "x": 1.0065295887565169, "y": 0.5051871044639232}, {"type": "position", "time": 17753, "x": 1.0065295887565169, "y": 0.5051871044639232}, {"type": "position", "time": 17803, "x": 1.0065295887565169, "y": 0.5051871044639232}, {"type": "click", "time": 17825, "x": 0.896499025016674, "y": 0.6085587231991155}, {"type": "position", "time": 17853, "x": 0.896499025016674, "y": 0.6085587231991155}, {"type": "position", "time": 17903, "x": 0.896499025016674, "y": 0.6085587231991155}, {"type": "position", "time": 17953, "x": 0.896499025016674, "y": 0.6085587231991155}, {"type": "position", "time": 18003, "x": 0.896499025016674, "y": 0.6085587231991155}, {"type": "position", "time": 18053, "x": 0.896499025016674, "y": 0.6085587231991155}, {"type": "position", "time": 18104, "x": 0.896499025016674, "y": 0.6085587231991155}, {"type": "position", "time": 18154, "x": 0.896499025016674, "y": 0.6085587231991155}, {"type": "position", "time": 18204, "x": 0.896499025016674, "y": 0.6085587231991155}, {"type": "position", "time": 18254, "x": 0.896499025016674, "y": 0.6085587231991155}, {"type": "position", "time": 18304, "x": 0.896499025016674, "y": 0.6085587231991155}, {"type": "position", "time": 18354, "x": 0.896499025016674, "y": 0.6085587231991155}, {"type": "position", "time": 18404, "x": 0.896499025016674, "y": 0.6085587231991155}, {"type": "position", "time": 18454, "x": 0.896499025016674, "y": 0.6085587231991155}, {"type": "position", "time": 18504, "x": 0.896499025016674, "y": 0.6085587231991155}, {"type": "position", "time": 18554, "x": 0.896499025016674, "y": 0.6085587231991155}, {"type": "position", "time": 18604, "x": 0.896499025016674, "y": 0.6085587231991155}, {"type": "position", "time": 18653, "x": 0.896499025016674, "y": 0.6085587231991155}, {"type": "position", "time": 18703, "x": 0.896499025016674, "y": 0.6085587231991155}, {"type": "position", "time": 18753, "x": 0.896499025016674, "y": 0.6085587231991155}, {"type": "position", "time": 18803, "x": 0.896499025016674, "y": 0.6085587231991155}, {"type": "position", "time": 18853, "x": 0.896499025016674, "y": 0.6085587231991155}, {"type": "position", "time": 18903, "x": 0.896499025016674, "y": 0.6085587231991155}, {"type": "position", "time": 18953, "x": 0.896499025016674, "y": 0.6085587231991155}, {"type": "position", "time": 19004, "x": 0.896499025016674, "y": 0.6085587231991155}, {"type": "position", "time": 19054, "x": 0.896499025016674, "y": 0.6085587231991155}, {"type": "position", "time": 19103, "x": 0.896499025016674, "y": 0.6085587231991155}, {"type": "position", "time": 19154, "x": 0.896499025016674, "y": 0.6085587231991155}, {"type": "position", "time": 19204, "x": 0.896499025016674, "y": 0.6085587231991155}, {"type": "position", "time": 19253, "x": 0.896499025016674, "y": 0.6085587231991155}, {"type": "position", "time": 19304, "x": 0.896499025016674, "y": 0.6085587231991155}, {"type": "position", "time": 19353, "x": 0.896499025016674, "y": 0.6085587231991155}, {"type": "position", "time": 19403, "x": 0.896499025016674, "y": 0.6085587231991155}, {"type": "position", "time": 19453, "x": 0.896499025016674, "y": 0.6085587231991155}, {"type": "position", "time": 19504, "x": 0.896499025016674, "y": 0.6085587231991155}, {"type": "position", "time": 19554, "x": 0.896499025016674, "y": 0.6085587231991155}, {"type": "position", "time": 19605, "x": 0.896499025016674, "y": 0.6085587231991155}, {"type": "position", "time": 19654, "x": 0.896499025016674, "y": 0.6085587231991155}, {"type": "position", "time": 19704, "x": 0.896499025016674, "y": 0.6085587231991155}, {"type": "slider", "time": 19739, "value": 0.58}, {"type": "click", "time": 19743, "x": 0.940261181049566, "y": 0.6585772483935634}, {"type": "position", "time": 19754, "x": 0.940261181049566, "y": 0.6585772483935634}, {"type": "position", "time": 19804, "x": 0.940261181049566, "y": 0.6585772483935634}, {"type": "position", "time": 19854, "x": 0.940261181049566, "y": 0.6585772483935634}, {"type": "position", "time": 19904, "x": 0.940261181049566, "y": 0.6585772483935634}, {"type": "position", "time": 19954, "x": 0.940261181049566, "y": 0.6585772483935634}, {"type": "position", "time": 20004, "x": 0.940261181049566, "y": 0.6585772483935634}, {"type": "position", "time": 20054, "x": 0.940261181049566, "y": 0.6585772483935634}, {"type": "position", "time": 20103, "x": 0.940261181049566, "y": 0.6585772483935634}, {"type": "position", "time": 20153, "x": 0.940261181049566, "y": 0.6585772483935634}, {"type": "position", "time": 20203, "x": 0.940261181049566, "y": 0.6585772483935634}, {"type": "position", "time": 20254, "x": 0.940261181049566, "y": 0.6585772483935634}, {"type": "click", "time": 20278, "x": 0.8902472884405466, "y": 0.7569470146093108}, {"type": "position", "time": 20303, "x": 0.8902472884405466, "y": 0.7569470146093108}, {"type": "position", "time": 20353, "x": 0.8902472884405466, "y": 0.7569470146093108}, {"type": "position", "time": 20404, "x": 0.8902472884405466, "y": 0.7569470146093108}, {"type": "position", "time": 20453, "x": 0.8902472884405466, "y": 0.7569470146093108}, {"type": "position", "time": 20503, "x": 0.8902472884405466, "y": 0.7569470146093108}, {"type": "position", "time": 20553, "x": 0.8902472884405466, "y": 0.7569470146093108}, {"type": "position", "time": 20603, "x": 0.8902472884405466, "y": 0.7569470146093108}, {"type": "position", "time": 20654, "x": 0.8902472884405466, "y": 0.7569470146093108}, {"type": "position", "time": 20704, "x": 0.8902472884405466, "y": 0.7569470146093108}, {"type": "position", "time": 20753, "x": 0.8902472884405466, "y": 0.7569470146093108}, {"type": "position", "time": 20803, "x": 0.8902472884405466, "y": 0.7569470146093108}, {"type": "position", "time": 20854, "x": 0.8902472884405466, "y": 0.7569470146093108}, {"type": "position", "time": 20904, "x": 0.8902472884405466, "y": 0.7569470146093108}, {"type": "position", "time": 20954, "x": 0.8902472884405466, "y": 0.7569470146093108}, {"type": "slider", "time": 20972, "value": 0.28}, {"type": "click", "time": 20973, "x": 0.7502083891352921, "y": 0.5602074821778159}, {"type": "position", "time": 21004, "x": 0.7502083891352921, "y": 0.5602074821778159}, {"type": "position", "time": 21054, "x": 0.7502083891352921, "y": 0.5602074821778159}, {"type": "position", "time": 21104, "x": 0.7502083891352921, "y": 0.5602074821778159}, {"type": "position", "time": 21154, "x": 0.7502083891352921, "y": 0.5602074821778159}, {"type": "position", "time": 21204, "x": 0.7502083891352921, "y": 0.5602074821778159}, {"type": "position", "time": 21254, "x": 0.7502083891352921, "y": 0.5602074821778159}, {"type": "position", "time": 21304, "x": 0.7502083891352921, "y": 0.5602074821778159}, {"type": "position", "time": 21354, "x": 0.7502083891352921, "y": 0.5602074821778159}, {"type": "click", "time": 21364, "x": 0.891497635755772, "y": 0.6585772483935634}, {"type": "position", "time": 21404, "x": 0.891497635755772, "y": 0.6585772483935634}, {"type": "position", "time": 21454, "x": 0.891497635755772, "y": 0.6585772483935634}, {"type": "position", "time": 21504, "x": 0.891497635755772, "y": 0.6585772483935634}, {"type": "position", "time": 21553, "x": 0.891497635755772, "y": 0.6585772483935634}, {"type": "position", "time": 21603, "x": 0.891497635755772, "y": 0.6585772483935634}, {"type": "position", "time": 21653, "x": 0.891497635755772, "y": 0.6585772483935634}, {"type": "position", "time": 21703, "x": 0.891497635755772, "y": 0.6585772483935634}, {"type": "position", "time": 21753, "x": 0.891497635755772, "y": 0.6585772483935634}, {"type": "position", "time": 21803, "x": 0.891497635755772, "y": 0.6585772483935634}, {"type": "position", "time": 21853, "x": 0.891497635755772, "y": 0.6585772483935634}, {"type": "position", "time": 21903, "x": 0.891497635755772, "y": 0.6585772483935634}, {"type": "position", "time": 21953, "x": 0.891497635755772, "y": 0.6585772483935634}, {"type": "position", "time": 22004, "x": 0.891497635755772, "y": 0.6585772483935634}, {"type": "position", "time": 22053, "x": 0.891497635755772, "y": 0.6585772483935634}, {"type": "position", "time": 22104, "x": 0.891497635755772, "y": 0.6585772483935634}, {"type": "position", "time": 22153, "x": 0.891497635755772, "y": 0.6585772483935634}, {"type": "position", "time": 22203, "x": 0.891497635755772, "y": 0.6585772483935634}, {"type": "position", "time": 22254, "x": 0.891497635755772, "y": 0.6585772483935634}, {"type": "position", "time": 22304, "x": 0.891497635755772, "y": 0.6585772483935634}, {"type": "slider", "time": 22339, "value": 0.88}, {"type": "click", "time": 22342, "x": 1.13031397296384, "y": 0.5502037771389263}, {"type": "position", "time": 22354, "x": 1.13031397296384, "y": 0.5502037771389263}, {"type": "position", "time": 22404, "x": 1.13031397296384, "y": 0.5502037771389263}, {"type": "position", "time": 22455, "x": 1.13031397296384, "y": 0.5502037771389263}, {"type": "position", "time": 22504, "x": 1.13031397296384, "y": 0.5502037771389263}, {"type": "position", "time": 22554, "x": 1.13031397296384, "y": 0.5502037771389263}, {"type": "position", "time": 22604, "x": 1.13031397296384, "y": 0.5502037771389263}, {"type": "position", "time": 22654, "x": 1.13031397296384, "y": 0.5502037771389263}, {"type": "position", "time": 22705, "x": 1.13031397296384, "y": 0.5502037771389263}, {"type": "position", "time": 22754, "x": 1.13031397296384, "y": 0.5502037771389263}, {"type": "position", "time": 22805, "x": 1.13031397296384, "y": 0.5502037771389263}, {"type": "position", "time": 22854, "x": 1.13031397296384, "y": 0.5502037771389263}, {"type": "click", "time": 22897, "x": 0.8952486777014486, "y": 0.6519081117009703}, {"type": "position", "time": 22904, "x": 0.8952486777014486, "y": 0.6519081117009703}, {"type": "position", "time": 22953, "x": 0.8952486777014486, "y": 0.6519081117009703}, {"type": "position", "time": 23004, "x": 0.8952486777014486, "y": 0.6519081117009703}, {"type": "position", "time": 23053, "x": 0.8952486777014486, "y": 0.6519081117009703}, {"type": "position", "time": 23104, "x": 0.8952486777014486, "y": 0.6519081117009703}, {"type": "position", "time": 23153, "x": 0.8952486777014486, "y": 0.6519081117009703}, {"type": "position", "time": 23203, "x": 0.8952486777014486, "y": 0.6519081117009703}, {"type": "position", "time": 23253, "x": 0.8952486777014486, "y": 0.6519081117009703}, {"type": "position", "time": 23303, "x": 0.8952486777014486, "y": 0.6519081117009703}, {"type": "position", "time": 23353, "x": 0.8952486777014486, "y": 0.6519081117009703}, {"type": "position", "time": 23403, "x": 0.8952486777014486, "y": 0.6519081117009703}, {"type": "position", "time": 23453, "x": 0.8952486777014486, "y": 0.6519081117009703}, {"type": "position", "time": 23504, "x": 0.8952486777014486, "y": 0.6519081117009703}, {"type": "position", "time": 23553, "x": 0.8952486777014486, "y": 0.6519081117009703}, {"type": "position", "time": 23603, "x": 0.8952486777014486, "y": 0.6519081117009703}, {"type": "position", "time": 23654, "x": 0.8952486777014486, "y": 0.6519081117009703}, {"type": "position", "time": 23704, "x": 0.8952486777014486, "y": 0.6519081117009703}, {"type": "position", "time": 23755, "x": 0.8952486777014486, "y": 0.6519081117009703}, {"type": "position", "time": 23804, "x": 0.8952486777014486, "y": 0.6519081117009703}, {"type": "position", "time": 23855, "x": 0.8952486777014486, "y": 0.6519081117009703}, {"type": "position", "time": 23904, "x": 0.8952486777014486, "y": 0.6519081117009703}, {"type": "position", "time": 23954, "x": 0.8952486777014486, "y": 0.6519081117009703}, {"type": "position", "time": 24004, "x": 0.8952486777014486, "y": 0.6519081117009703}, {"type": "position", "time": 24054, "x": 0.8952486777014486, "y": 0.6519081117009703}, {"type": "position", "time": 24104, "x": 0.8952486777014486, "y": 0.6519081117009703}, {"type": "position", "time": 24154, "x": 0.8952486777014486, "y": 0.6519081117009703}, {"type": "position", "time": 24204, "x": 0.8952486777014486, "y": 0.6519081117009703}, {"type": "position", "time": 24254, "x": 0.8952486777014486, "y": 0.6519081117009703}, {"type": "position", "time": 24304, "x": 0.8952486777014486, "y": 0.6519081117009703}, {"type": "position", "time": 24353, "x": 0.8952486777014486, "y": 0.6519081117009703}, {"type": "position", "time": 24403, "x": 0.8952486777014486, "y": 0.6519081117009703}, {"type": "position", "time": 24453, "x": 0.8952486777014486, "y": 0.6519081117009703}, {"type": "slider", "time": 24463, "value": 0.82}, {"type": "click", "time": 24464, "x": 1.094053900822301, "y": 0.5335309354074438}, {"type": "position", "time": 24503, "x": 1.094053900822301, "y": 0.5335309354074438}, {"type": "position", "time": 24553, "x": 1.094053900822301, "y": 0.5335309354074438}, {"type": "position", "time": 24603, "x": 1.094053900822301, "y": 0.5335309354074438}, {"type": "position", "time": 24654, "x": 1.094053900822301, "y": 0.5335309354074438}, {"type": "position", "time": 24703, "x": 1.094053900822301, "y": 0.5335309354074438}, {"type": "click", "time": 24735, "x": 0.9052514562232524, "y": 0.636902554142636}, {"type": "position", "time": 24754, "x": 0.9052514562232524, "y": 0.636902554142636}, {"type": "position", "time": 24803, "x": 0.9052514562232524, "y": 0.636902554142636}, {"type": "position", "time": 24854, "x": 0.9052514562232524, "y": 0.636902554142636}, {"type": "position", "time": 24903, "x": 0.9052514562232524, "y": 0.636902554142636}, {"type": "position", "time": 24953, "x": 0.9052514562232524, "y": 0.636902554142636}, {"type": "position", "time": 25004, "x": 0.9052514562232524, "y": 0.636902554142636}, {"type": "position", "time": 25054, "x": 0.9052514562232524, "y": 0.636902554142636}, {"type": "position", "time": 25105, "x": 0.9052514562232524, "y": 0.636902554142636}, {"type": "position", "time": 25155, "x": 0.9052514562232524, "y": 0.636902554142636}, {"type": "slider", "time": 25189, "value": 0.8}, {"type": "click", "time": 25191, "x": 1.0790497330395952, "y": 0.4951833994250337}, {"type": "position", "time": 25205, "x": 1.0790497330395952, "y": 0.4951833994250337}, {"type": "position", "time": 25254, "x": 1.0790497330395952, "y": 0.4951833994250337}, {"type": "position", "time": 25304, "x": 1.0790497330395952, "y": 0.4951833994250337}, {"type": "position", "time": 25355, "x": 1.0790497330395952, "y": 0.4951833994250337}, {"type": "position", "time": 25404, "x": 1.0790497330395952, "y": 0.4951833994250337}, {"type": "position", "time": 25454, "x": 1.0790497330395952, "y": 0.4951833994250337}, {"type": "click", "time": 25486, "x": 0.8852458991796446, "y": 0.5935531656407812}, {"type": "position", "time": 25504, "x": 0.8852458991796446, "y": 0.5935531656407812}, {"type": "position", "time": 25554, "x": 0.8852458991796446, "y": 0.5935531656407812}, {"type": "position", "time": 25604, "x": 0.8852458991796446, "y": 0.5935531656407812}, {"type": "position", "time": 25655, "x": 0.8852458991796446, "y": 0.5935531656407812}, {"type": "position", "time": 25704, "x": 0.8852458991796446, "y": 0.5935531656407812}, {"type": "position", "time": 25754, "x": 0.8852458991796446, "y": 0.5935531656407812}, {"type": "position", "time": 25803, "x": 0.8852458991796446, "y": 0.5935531656407812}, {"type": "position", "time": 25853, "x": 0.8852458991796446, "y": 0.5935531656407812}, {"type": "position", "time": 25903, "x": 0.8852458991796446, "y": 0.5935531656407812}, {"type": "click", "time": 25927, "x": 0.8002222817443115, "y": 0.47184142100095805}, {"type": "position", "time": 25953, "x": 0.8002222817443115, "y": 0.47184142100095805}, {"type": "position", "time": 26003, "x": 0.8002222817443115, "y": 0.47184142100095805}, {"type": "position", "time": 26054, "x": 0.8002222817443115, "y": 0.47184142100095805}, {"type": "position", "time": 26103, "x": 0.8002222817443115, "y": 0.47184142100095805}, {"type": "position", "time": 26154, "x": 0.8002222817443115, "y": 0.47184142100095805}, {"type": "position", "time": 26203, "x": 0.8002222817443115, "y": 0.47184142100095805}, {"type": "position", "time": 26253, "x": 0.8002222817443115, "y": 0.47184142100095805}, {"type": "position", "time": 26303, "x": 0.8002222817443115, "y": 0.47184142100095805}, {"type": "position", "time": 26353, "x": 0.8002222817443115, "y": 0.47184142100095805}, {"type": "position", "time": 26404, "x": 0.8002222817443115, "y": 0.47184142100095805}, {"type": "position", "time": 26453, "x": 0.8002222817443115, "y": 0.47184142100095805}, {"type": "position", "time": 26504, "x": 0.8002222817443115, "y": 0.47184142100095805}, {"type": "position", "time": 26554, "x": 0.8002222817443115, "y": 0.47184142100095805}, {"type": "position", "time": 26604, "x": 0.8002222817443115, "y": 0.47184142100095805}, {"type": "position", "time": 26654, "x": 0.8002222817443115, "y": 0.47184142100095805}, {"type": "position", "time": 26704, "x": 0.8002222817443115, "y": 0.47184142100095805}, {"type": "position", "time": 26754, "x": 0.8002222817443115, "y": 0.47184142100095805}, {"type": "position", "time": 26804, "x": 0.8002222817443115, "y": 0.47184142100095805}, {"type": "position", "time": 26854, "x": 0.8002222817443115, "y": 0.47184142100095805}, {"type": "position", "time": 26904, "x": 0.8002222817443115, "y": 0.47184142100095805}, {"type": "position", "time": 26954, "x": 0.8002222817443115, "y": 0.47184142100095805}, {"type": "position", "time": 27004, "x": 0.8002222817443115, "y": 0.47184142100095805}, {"type": "position", "time": 27054, "x": 0.8002222817443115, "y": 0.47184142100095805}, {"type": "position", "time": 27104, "x": 0.8002222817443115, "y": 0.47184142100095805}, {"type": "position", "time": 27154, "x": 0.8002222817443115, "y": 0.47184142100095805}, {"type": "position", "time": 27203, "x": 0.8002222817443115, "y": 0.47184142100095805}, {"type": "position", "time": 27253, "x": 0.8002222817443115, "y": 0.47184142100095805}, {"type": "position", "time": 27303, "x": 0.8002222817443115, "y": 0.47184142100095805}, {"type": "position", "time": 27353, "x": 0.8002222817443115, "y": 0.47184142100095805}, {"type": "position", "time": 27403, "x": 0.8002222817443115, "y": 0.47184142100095805}, {"type": "position", "time": 27453, "x": 0.8002222817443115, "y": 0.47184142100095805}, {"type": "position", "time": 27504, "x": 0.8002222817443115, "y": 0.47184142100095805}, {"type": "position", "time": 27554, "x": 0.8002222817443115, "y": 0.47184142100095805}, {"type": "position", "time": 27603, "x": 0.8002222817443115, "y": 0.47184142100095805}, {"type": "position", "time": 27654, "x": 0.8002222817443115, "y": 0.47184142100095805}, {"type": "position", "time": 27704, "x": 0.8002222817443115, "y": 0.47184142100095805}, {"type": "position", "time": 27753, "x": 0.8002222817443115, "y": 0.47184142100095805}, {"type": "position", "time": 27803, "x": 0.8002222817443115, "y": 0.47184142100095805}, {"type": "position", "time": 27854, "x": 0.8002222817443115, "y": 0.47184142100095805}, {"type": "position", "time": 27905, "x": 0.8002222817443115, "y": 0.47184142100095805}, {"type": "position", "time": 27954, "x": 0.8002222817443115, "y": 0.47184142100095805}, {"type": "position", "time": 28005, "x": 0.8002222817443115, "y": 0.47184142100095805}, {"type": "position", "time": 28054, "x": 0.8002222817443115, "y": 0.47184142100095805}, {"type": "position", "time": 28104, "x": 0.8002222817443115, "y": 0.47184142100095805}, {"type": "position", "time": 28154, "x": 0.8002222817443115, "y": 0.47184142100095805}, {"type": "position", "time": 28204, "x": 0.8002222817443115, "y": 0.47184142100095805}, {"type": "position", "time": 28255, "x": 0.8002222817443115, "y": 0.47184142100095805}, {"type": "position", "time": 28304, "x": 0.8002222817443115, "y": 0.47184142100095805}, {"type": "position", "time": 28354, "x": 0.8002222817443115, "y": 0.47184142100095805}, {"type": "position", "time": 28404, "x": 0.8002222817443115, "y": 0.47184142100095805}, {"type": "position", "time": 28454, "x": 0.8002222817443115, "y": 0.47184142100095805}, {"type": "position", "time": 28504, "x": 0.8002222817443115, "y": 0.47184142100095805}, {"type": "position", "time": 28554, "x": 0.8002222817443115, "y": 0.47184142100095805}, {"type": "position", "time": 28604, "x": 0.8002222817443115, "y": 0.47184142100095805}, {"type": "position", "time": 28653, "x": 0.8002222817443115, "y": 0.47184142100095805}, {"type": "position", "time": 28703, "x": 0.8002222817443115, "y": 0.47184142100095805}, {"type": "position", "time": 28753, "x": 0.8002222817443115, "y": 0.47184142100095805}, {"type": "position", "time": 28803, "x": 0.8002222817443115, "y": 0.47184142100095805}, {"type": "position", "time": 28853, "x": 0.8002222817443115, "y": 0.47184142100095805}, {"type": "position", "time": 28904, "x": 0.8002222817443115, "y": 0.47184142100095805}, {"type": "position", "time": 28954, "x": 0.8002222817443115, "y": 0.47184142100095805}, {"type": "position", "time": 29004, "x": 0.8002222817443115, "y": 0.47184142100095805}, {"type": "position", "time": 29053, "x": 0.8002222817443115, "y": 0.47184142100095805}, {"type": "position", "time": 29103, "x": 0.8002222817443115, "y": 0.47184142100095805}, {"type": "position", "time": 29153, "x": 0.8002222817443115, "y": 0.47184142100095805}, {"type": "position", "time": 29203, "x": 0.8002222817443115, "y": 0.47184142100095805}, {"type": "position", "time": 29254, "x": 0.8002222817443115, "y": 0.47184142100095805}, {"type": "position", "time": 29304, "x": 0.8002222817443115, "y": 0.47184142100095805}, {"type": "position", "time": 29354, "x": 0.8002222817443115, "y": 0.47184142100095805}, {"type": "position", "time": 29404, "x": 0.8002222817443115, "y": 0.47184142100095805}, {"type": "position", "time": 29454, "x": 0.8002222817443115, "y": 0.47184142100095805}, {"type": "position", "time": 29504, "x": 0.8002222817443115, "y": 0.47184142100095805}, {"type": "position", "time": 29554, "x": 0.8002222817443115, "y": 0.47184142100095805}, {"type": "position", "time": 29604, "x": 0.8002222817443115, "y": 0.47184142100095805}, {"type": "position", "time": 29654, "x": 0.8002222817443115, "y": 0.47184142100095805}, {"type": "keyup", "time": 29682, "key": "D", "keyCode": 68}, {"type": "position", "time": 29704, "x": 0.8002222817443115, "y": 0.47184142100095805}, {"type": "position", "time": 29754, "x": 0.8002222817443115, "y": 0.47184142100095805}, {"type": "keyup", "time": 29757, "key": "O", "keyCode": 79}, {"type": "position", "time": 29804, "x": 0.8002222817443115, "y": 0.47184142100095805}, {"type": "keyup", "time": 29820, "key": "E", "keyCode": 69}, {"type": "position", "time": 29854, "x": 0.8002222817443115, "y": 0.47184142100095805}, {"type": "position", "time": 29904, "x": 0.8002222817443115, "y": 0.47184142100095805}, {"type": "position", "time": 29955, "x": 0.8002222817443115, "y": 0.47184142100095805}, {"type": "keyup", "time": 29970, "key": "S", "keyCode": 83}, {"type": "position", "time": 30004, "x": 0.8002222817443115, "y": 0.47184142100095805}, {"type": "keyup", "time": 30044, "key": "N", "keyCode": 78}, {"type": "position", "time": 30054, "x": 0.8002222817443115, "y": 0.47184142100095805}, {"type": "position", "time": 30104, "x": 0.8002222817443115, "y": 0.47184142100095805}, {"type": "position", "time": 30154, "x": 0.8002222817443115, "y": 0.47184142100095805}, {"type": "position", "time": 30203, "x": 0.8002222817443115, "y": 0.47184142100095805}, {"type": "position", "time": 30253, "x": 0.8002222817443115, "y": 0.47184142100095805}, {"type": "keyup", "time": 30265, "key": "\u00de", "keyCode": 222}, {"type": "position", "time": 30303, "x": 0.8002222817443115, "y": 0.47184142100095805}, {"type": "keyup", "time": 30308, "key": "T", "keyCode": 84}, {"type": "position", "time": 30354, "x": 0.8002222817443115, "y": 0.47184142100095805}, {"type": "keyup", "time": 30354, "key": " ", "keyCode": 32}, {"type": "position", "time": 30403, "x": 0.8002222817443115, "y": 0.47184142100095805}, {"type": "position", "time": 30453, "x": 0.8002222817443115, "y": 0.47184142100095805}, {"type": "keyup", "time": 30487, "key": "M", "keyCode": 77}, {"type": "position", "time": 30503, "x": 0.8002222817443115, "y": 0.47184142100095805}, {"type": "keyup", "time": 30530, "key": "A", "keyCode": 65}, {"type": "position", "time": 30553, "x": 0.8002222817443115, "y": 0.47184142100095805}, {"type": "position", "time": 30603, "x": 0.8002222817443115, "y": 0.47184142100095805}, {"type": "position", "time": 30653, "x": 0.8002222817443115, "y": 0.47184142100095805}, {"type": "position", "time": 30704, "x": 0.8002222817443115, "y": 0.47184142100095805}, {"type": "keyup", "time": 30712, "key": "K", "keyCode": 75}, {"type": "keyup", "time": 30729, "key": "E", "keyCode": 69}, {"type": "keyup", "time": 30744, "key": " ", "keyCode": 32}, {"type": "position", "time": 30754, "x": 0.8002222817443115, "y": 0.47184142100095805}, {"type": "position", "time": 30804, "x": 0.8002222817443115, "y": 0.47184142100095805}, {"type": "position", "time": 30854, "x": 0.8002222817443115, "y": 0.47184142100095805}, {"type": "keyup", "time": 30894, "key": "S", "keyCode": 83}, {"type": "position", "time": 30904, "x": 0.8002222817443115, "y": 0.47184142100095805}, {"type": "position", "time": 30954, "x": 0.8002222817443115, "y": 0.47184142100095805}, {"type": "position", "time": 31004, "x": 0.8002222817443115, "y": 0.47184142100095805}, {"type": "position", "time": 31054, "x": 0.8002222817443115, "y": 0.47184142100095805}, {"type": "keyup", "time": 31076, "key": "E", "keyCode": 69}, {"type": "position", "time": 31104, "x": 0.8002222817443115, "y": 0.47184142100095805}, {"type": "position", "time": 31154, "x": 0.8002222817443115, "y": 0.47184142100095805}, {"type": "position", "time": 31204, "x": 0.8002222817443115, "y": 0.47184142100095805}, {"type": "keyup", "time": 31236, "key": "N", "keyCode": 78}, {"type": "position", "time": 31254, "x": 0.8002222817443115, "y": 0.47184142100095805}, {"type": "keyup", "time": 31268, "key": "S", "keyCode": 83}, {"type": "position", "time": 31304, "x": 0.8002222817443115, "y": 0.47184142100095805}, {"type": "position", "time": 31354, "x": 0.8002222817443115, "y": 0.47184142100095805}, {"type": "position", "time": 31404, "x": 0.8002222817443115, "y": 0.47184142100095805}, {"type": "position", "time": 31454, "x": 0.8002222817443115, "y": 0.47184142100095805}, {"type": "keyup", "time": 31478, "key": "E", "keyCode": 69}, {"type": "position", "time": 31503, "x": 0.8002222817443115, "y": 0.47184142100095805}, {"type": "position", "time": 31553, "x": 0.8002222817443115, "y": 0.47184142100095805}, {"type": "position", "time": 31603, "x": 0.8002222817443115, "y": 0.47184142100095805}, {"type": "position", "time": 31653, "x": 0.8002222817443115, "y": 0.47184142100095805}, {"type": "position", "time": 31703, "x": 0.8002222817443115, "y": 0.47184142100095805}, {"type": "position", "time": 31753, "x": 0.8002222817443115, "y": 0.47184142100095805}, {"type": "position", "time": 31803, "x": 0.8002222817443115, "y": 0.47184142100095805}, {"type": "position", "time": 31853, "x": 0.8002222817443115, "y": 0.47184142100095805}, {"type": "position", "time": 31903, "x": 0.8002222817443115, "y": 0.47184142100095805}, {"type": "position", "time": 31953, "x": 0.8002222817443115, "y": 0.47184142100095805}, {"type": "position", "time": 32004, "x": 0.8002222817443115, "y": 0.47184142100095805}, {"type": "position", "time": 32054, "x": 0.8002222817443115, "y": 0.47184142100095805}, {"type": "position", "time": 32103, "x": 0.8002222817443115, "y": 0.47184142100095805}, {"type": "position", "time": 32155, "x": 0.8002222817443115, "y": 0.47184142100095805}, {"type": "position", "time": 32204, "x": 0.8002222817443115, "y": 0.47184142100095805}, {"type": "position", "time": 32254, "x": 0.8002222817443115, "y": 0.47184142100095805}, {"type": "position", "time": 32304, "x": 0.8002222817443115, "y": 0.47184142100095805}, {"type": "position", "time": 32355, "x": 0.8002222817443115, "y": 0.47184142100095805}, {"type": "position", "time": 32404, "x": 0.8002222817443115, "y": 0.47184142100095805}, {"type": "position", "time": 32454, "x": 0.8002222817443115, "y": 0.47184142100095805}, {"type": "position", "time": 32504, "x": 0.8002222817443115, "y": 0.47184142100095805}, {"type": "position", "time": 32554, "x": 0.8002222817443115, "y": 0.47184142100095805}, {"type": "position", "time": 32604, "x": 0.8002222817443115, "y": 0.47184142100095805}, {"type": "position", "time": 32654, "x": 0.8002222817443115, "y": 0.47184142100095805}, {"type": "position", "time": 32704, "x": 0.8002222817443115, "y": 0.47184142100095805}, {"type": "position", "time": 32754, "x": 0.8002222817443115, "y": 0.47184142100095805}, {"type": "position", "time": 32803, "x": 0.8002222817443115, "y": 0.47184142100095805}, {"type": "click", "time": 32814, "x": 0.8952486777014486, "y": 0.5752130397361502}, {"type": "position", "time": 32853, "x": 0.8952486777014486, "y": 0.5752130397361502}, {"type": "position", "time": 32903, "x": 0.8952486777014486, "y": 0.5752130397361502}, {"type": "position", "time": 32953, "x": 0.8952486777014486, "y": 0.5752130397361502}, {"type": "position", "time": 33004, "x": 0.8952486777014486, "y": 0.5752130397361502}, {"type": "position", "time": 33054, "x": 0.8952486777014486, "y": 0.5752130397361502}, {"type": "position", "time": 33105, "x": 0.8952486777014486, "y": 0.5752130397361502}, {"type": "position", "time": 33154, "x": 0.8952486777014486, "y": 0.5752130397361502}, {"type": "position", "time": 33204, "x": 0.8952486777014486, "y": 0.5752130397361502}, {"type": "position", "time": 33254, "x": 0.8952486777014486, "y": 0.5752130397361502}, {"type": "position", "time": 33304, "x": 0.8952486777014486, "y": 0.5752130397361502}, {"type": "position", "time": 33354, "x": 0.8952486777014486, "y": 0.5752130397361502}, {"type": "position", "time": 33404, "x": 0.8952486777014486, "y": 0.5752130397361502}, {"type": "position", "time": 33454, "x": 0.8952486777014486, "y": 0.5752130397361502}, {"type": "position", "time": 33504, "x": 0.8952486777014486, "y": 0.5752130397361502}, {"type": "slider", "time": 33509, "value": 0.62}, {"type": "click", "time": 33511, "x": 0.9652681273540757, "y": 0.6252315649305982}, {"type": "position", "time": 33554, "x": 0.9652681273540757, "y": 0.6252315649305982}, {"type": "position", "time": 33604, "x": 0.9652681273540757, "y": 0.6252315649305982}, {"type": "position", "time": 33654, "x": 0.9652681273540757, "y": 0.6252315649305982}, {"type": "position", "time": 33704, "x": 0.9652681273540757, "y": 0.6252315649305982}, {"type": "position", "time": 33754, "x": 0.9652681273540757, "y": 0.6252315649305982}, {"type": "position", "time": 33804, "x": 0.9652681273540757, "y": 0.6252315649305982}, {"type": "position", "time": 33854, "x": 0.9652681273540757, "y": 0.6252315649305982}, {"type": "position", "time": 33903, "x": 0.9652681273540757, "y": 0.6252315649305982}, {"type": "position", "time": 33953, "x": 0.9652681273540757, "y": 0.6252315649305982}, {"type": "click", "time": 33990, "x": 0.8689913840817133, "y": 0.7252686153194938}, {"type": "position", "time": 34004, "x": 0.8689913840817133, "y": 0.7252686153194938}, {"type": "position", "time": 34053, "x": 0.8689913840817133, "y": 0.7252686153194938}, {"type": "position", "time": 34104, "x": 0.8689913840817133, "y": 0.7252686153194938}, {"type": "position", "time": 34154, "x": 0.8689913840817133, "y": 0.7252686153194938}, {"type": "position", "time": 34203, "x": 0.8689913840817133, "y": 0.7252686153194938}, {"type": "position", "time": 34253, "x": 0.8689913840817133, "y": 0.7252686153194938}, {"type": "position", "time": 34304, "x": 0.8689913840817133, "y": 0.7252686153194938}, {"type": "position", "time": 34353, "x": 0.8689913840817133, "y": 0.7252686153194938}, {"type": "position", "time": 34403, "x": 0.8689913840817133, "y": 0.7252686153194938}, {"type": "position", "time": 34454, "x": 0.8689913840817133, "y": 0.7252686153194938}, {"type": "position", "time": 34504, "x": 0.8689913840817133, "y": 0.7252686153194938}, {"type": "position", "time": 34554, "x": 0.8689913840817133, "y": 0.7252686153194938}, {"type": "position", "time": 34604, "x": 0.8689913840817133, "y": 0.7252686153194938}, {"type": "slider", "time": 34644, "value": 0.23}, {"type": "click", "time": 34645, "x": 0.7214504008851058, "y": 0.5218599461954059}, {"type": "position", "time": 34654, "x": 0.7214504008851058, "y": 0.5218599461954059}, {"type": "position", "time": 34704, "x": 0.7214504008851058, "y": 0.5218599461954059}, {"type": "position", "time": 34754, "x": 0.7214504008851058, "y": 0.5218599461954059}, {"type": "position", "time": 34804, "x": 0.7214504008851058, "y": 0.5218599461954059}, {"type": "position", "time": 34854, "x": 0.7214504008851058, "y": 0.5218599461954059}, {"type": "click", "time": 34879, "x": 0.9027507615928014, "y": 0.6268988491037464}, {"type": "position", "time": 34904, "x": 0.9027507615928014, "y": 0.6268988491037464}, {"type": "position", "time": 34955, "x": 0.9027507615928014, "y": 0.6268988491037464}, {"type": "position", "time": 35004, "x": 0.9027507615928014, "y": 0.6268988491037464}, {"type": "position", "time": 35054, "x": 0.9027507615928014, "y": 0.6268988491037464}, {"type": "position", "time": 35104, "x": 0.9027507615928014, "y": 0.6268988491037464}, {"type": "position", "time": 35154, "x": 0.9027507615928014, "y": 0.6268988491037464}, {"type": "position", "time": 35204, "x": 0.9027507615928014, "y": 0.6268988491037464}, {"type": "position", "time": 35254, "x": 0.9027507615928014, "y": 0.6268988491037464}, {"type": "slider", "time": 35279, "value": 0.47}, {"type": "click", "time": 35281, "x": 0.8714920787121643, "y": 0.5268617987148507}, {"type": "position", "time": 35304, "x": 0.8714920787121643, "y": 0.5268617987148507}, {"type": "position", "time": 35353, "x": 0.8714920787121643, "y": 0.5268617987148507}, {"type": "position", "time": 35403, "x": 0.8714920787121643, "y": 0.5268617987148507}, {"type": "position", "time": 35453, "x": 0.8714920787121643, "y": 0.5268617987148507}, {"type": "position", "time": 35503, "x": 0.8714920787121643, "y": 0.5268617987148507}, {"type": "click", "time": 35532, "x": 0.8802445099187427, "y": 0.6385698383157842}, {"type": "position", "time": 35553, "x": 0.8802445099187427, "y": 0.6385698383157842}, {"type": "position", "time": 35604, "x": 0.8802445099187427, "y": 0.6385698383157842}, {"type": "position", "time": 35654, "x": 0.8802445099187427, "y": 0.6385698383157842}, {"type": "position", "time": 35703, "x": 0.8802445099187427, "y": 0.6385698383157842}, {"type": "position", "time": 35753, "x": 0.8802445099187427, "y": 0.6385698383157842}, {"type": "position", "time": 35803, "x": 0.8802445099187427, "y": 0.6385698383157842}, {"type": "slider", "time": 35848, "value": 0.76}, {"type": "click", "time": 35850, "x": 1.0565434813655363, "y": 0.5251945145417024}, {"type": "position", "time": 35854, "x": 1.0565434813655363, "y": 0.5251945145417024}, {"type": "position", "time": 35904, "x": 1.0565434813655363, "y": 0.5251945145417024}, {"type": "position", "time": 35954, "x": 1.0565434813655363, "y": 0.5251945145417024}, {"type": "position", "time": 36005, "x": 1.0565434813655363, "y": 0.5251945145417024}, {"type": "position", "time": 36054, "x": 1.0565434813655363, "y": 0.5251945145417024}, {"type": "position", "time": 36104, "x": 1.0565434813655363, "y": 0.5251945145417024}, {"type": "click", "time": 36115, "x": 0.9077521508537034, "y": 0.6268988491037464}, {"type": "position", "time": 36154, "x": 0.9077521508537034, "y": 0.6268988491037464}, {"type": "position", "time": 36204, "x": 0.9077521508537034, "y": 0.6268988491037464}, {"type": "position", "time": 36255, "x": 0.9077521508537034, "y": 0.6268988491037464}, {"type": "position", "time": 36304, "x": 0.9077521508537034, "y": 0.6268988491037464}, {"type": "position", "time": 36354, "x": 0.9077521508537034, "y": 0.6268988491037464}, {"type": "position", "time": 36404, "x": 0.9077521508537034, "y": 0.6268988491037464}, {"type": "position", "time": 36455, "x": 0.9077521508537034, "y": 0.6268988491037464}, {"type": "position", "time": 36504, "x": 0.9077521508537034, "y": 0.6268988491037464}, {"type": "position", "time": 36554, "x": 0.9077521508537034, "y": 0.6268988491037464}, {"type": "position", "time": 36604, "x": 0.9077521508537034, "y": 0.6268988491037464}, {"type": "position", "time": 36654, "x": 0.9077521508537034, "y": 0.6268988491037464}, {"type": "position", "time": 36704, "x": 0.9077521508537034, "y": 0.6268988491037464}, {"type": "position", "time": 36753, "x": 0.9077521508537034, "y": 0.6268988491037464}, {"type": "slider", "time": 36785, "value": 0.84}, {"type": "click", "time": 36787, "x": 1.1065573739745558, "y": 0.5602074821778159}, {"type": "position", "time": 36803, "x": 1.1065573739745558, "y": 0.5602074821778159}, {"type": "position", "time": 36853, "x": 1.1065573739745558, "y": 0.5602074821778159}, {"type": "position", "time": 36903, "x": 1.1065573739745558, "y": 0.5602074821778159}, {"type": "position", "time": 36953, "x": 1.1065573739745558, "y": 0.5602074821778159}, {"type": "position", "time": 37003, "x": 1.1065573739745558, "y": 0.5602074821778159}, {"type": "position", "time": 37053, "x": 1.1065573739745558, "y": 0.5602074821778159}, {"type": "click", "time": 37106, "x": 0.901500414277576, "y": 0.6602445325667116}, {"type": "position", "time": 37108, "x": 0.901500414277576, "y": 0.6602445325667116}, {"type": "position", "time": 37154, "x": 0.901500414277576, "y": 0.6602445325667116}, {"type": "position", "time": 37204, "x": 0.901500414277576, "y": 0.6602445325667116}, {"type": "position", "time": 37254, "x": 0.901500414277576, "y": 0.6602445325667116}, {"type": "position", "time": 37304, "x": 0.901500414277576, "y": 0.6602445325667116}, {"type": "position", "time": 37354, "x": 0.901500414277576, "y": 0.6602445325667116}, {"type": "position", "time": 37404, "x": 0.901500414277576, "y": 0.6602445325667116}, {"type": "position", "time": 37454, "x": 0.901500414277576, "y": 0.6602445325667116}, {"type": "position", "time": 37505, "x": 0.901500414277576, "y": 0.6602445325667116}, {"type": "position", "time": 37555, "x": 0.901500414277576, "y": 0.6602445325667116}, {"type": "position", "time": 37604, "x": 0.901500414277576, "y": 0.6602445325667116}, {"type": "position", "time": 37654, "x": 0.901500414277576, "y": 0.6602445325667116}, {"type": "position", "time": 37704, "x": 0.901500414277576, "y": 0.6602445325667116}, {"type": "position", "time": 37754, "x": 0.901500414277576, "y": 0.6602445325667116}, {"type": "position", "time": 37805, "x": 0.901500414277576, "y": 0.6602445325667116}, {"type": "position", "time": 37854, "x": 0.901500414277576, "y": 0.6602445325667116}, {"type": "position", "time": 37905, "x": 0.901500414277576, "y": 0.6602445325667116}, {"type": "click", "time": 37914, "x": 0.9652681273540757, "y": 0.5368655037537402}, {"type": "position", "time": 37954, "x": 0.9652681273540757, "y": 0.5368655037537402}, {"type": "position", "time": 38004, "x": 0.9652681273540757, "y": 0.5368655037537402}, {"type": "position", "time": 38054, "x": 0.9652681273540757, "y": 0.5368655037537402}, {"type": "position", "time": 38104, "x": 0.9652681273540757, "y": 0.5368655037537402}, {"type": "position", "time": 38153, "x": 0.9652681273540757, "y": 0.5368655037537402}, {"type": "position", "time": 38203, "x": 0.9652681273540757, "y": 0.5368655037537402}, {"type": "position", "time": 38253, "x": 0.9652681273540757, "y": 0.5368655037537402}, {"type": "position", "time": 38303, "x": 0.9652681273540757, "y": 0.5368655037537402}, {"type": "position", "time": 38353, "x": 0.9652681273540757, "y": 0.5368655037537402}, {"type": "click", "time": 38363, "x": 0.8902472884405466, "y": 0.6419044066620807}, {"type": "position", "time": 38403, "x": 0.8902472884405466, "y": 0.6419044066620807}, {"type": "position", "time": 38453, "x": 0.8902472884405466, "y": 0.6419044066620807}, {"type": "position", "time": 38503, "x": 0.8902472884405466, "y": 0.6419044066620807}, {"type": "position", "time": 38553, "x": 0.8902472884405466, "y": 0.6419044066620807}, {"type": "position", "time": 38603, "x": 0.8902472884405466, "y": 0.6419044066620807}, {"type": "position", "time": 38654, "x": 0.8902472884405466, "y": 0.6419044066620807}, {"type": "position", "time": 38704, "x": 0.8902472884405466, "y": 0.6419044066620807}, {"type": "position", "time": 38754, "x": 0.8902472884405466, "y": 0.6419044066620807}, {"type": "position", "time": 38804, "x": 0.8902472884405466, "y": 0.6419044066620807}, {"type": "position", "time": 38854, "x": 0.8902472884405466, "y": 0.6419044066620807}, {"type": "position", "time": 38904, "x": 0.8902472884405466, "y": 0.6419044066620807}, {"type": "position", "time": 38954, "x": 0.8902472884405466, "y": 0.6419044066620807}, {"type": "click", "time": 39005, "x": 1.0265351458001246, "y": 0.535198219580592}, {"type": "position", "time": 39007, "x": 1.0265351458001246, "y": 0.535198219580592}, {"type": "position", "time": 39055, "x": 1.0265351458001246, "y": 0.535198219580592}, {"type": "position", "time": 39104, "x": 1.0265351458001246, "y": 0.535198219580592}, {"type": "position", "time": 39155, "x": 1.0265351458001246, "y": 0.535198219580592}, {"type": "position", "time": 39204, "x": 1.0265351458001246, "y": 0.535198219580592}, {"type": "position", "time": 39254, "x": 1.0265351458001246, "y": 0.535198219580592}, {"type": "position", "time": 39304, "x": 1.0265351458001246, "y": 0.535198219580592}, {"type": "position", "time": 39354, "x": 1.0265351458001246, "y": 0.535198219580592}, {"type": "position", "time": 39404, "x": 1.0265351458001246, "y": 0.535198219580592}, {"type": "position", "time": 39454, "x": 1.0265351458001246, "y": 0.535198219580592}, {"type": "position", "time": 39504, "x": 1.0265351458001246, "y": 0.535198219580592}, {"type": "position", "time": 39554, "x": 1.0265351458001246, "y": 0.535198219580592}, {"type": "position", "time": 39604, "x": 1.0265351458001246, "y": 0.535198219580592}, {"type": "position", "time": 39653, "x": 1.0265351458001246, "y": 0.535198219580592}, {"type": "position", "time": 39703, "x": 1.0265351458001246, "y": 0.535198219580592}, {"type": "position", "time": 39753, "x": 1.0265351458001246, "y": 0.535198219580592}, {"type": "position", "time": 39803, "x": 1.0265351458001246, "y": 0.535198219580592}, {"type": "position", "time": 39853, "x": 1.0265351458001246, "y": 0.535198219580592}, {"type": "position", "time": 39903, "x": 1.0265351458001246, "y": 0.535198219580592}, {"type": "position", "time": 39953, "x": 1.0265351458001246, "y": 0.535198219580592}, {"type": "position", "time": 40004, "x": 1.0265351458001246, "y": 0.535198219580592}, {"type": "position", "time": 40054, "x": 1.0265351458001246, "y": 0.535198219580592}, {"type": "position", "time": 40103, "x": 1.0265351458001246, "y": 0.535198219580592}, {"type": "position", "time": 40154, "x": 1.0265351458001246, "y": 0.535198219580592}, {"type": "position", "time": 40204, "x": 1.0265351458001246, "y": 0.535198219580592}, {"type": "position", "time": 40254, "x": 1.0265351458001246, "y": 0.535198219580592}, {"type": "position", "time": 40304, "x": 1.0265351458001246, "y": 0.535198219580592}, {"type": "position", "time": 40354, "x": 1.0265351458001246, "y": 0.535198219580592}, {"type": "position", "time": 40404, "x": 1.0265351458001246, "y": 0.535198219580592}, {"type": "position", "time": 40454, "x": 1.0265351458001246, "y": 0.535198219580592}, {"type": "position", "time": 40504, "x": 1.0265351458001246, "y": 0.535198219580592}, {"type": "position", "time": 40554, "x": 1.0265351458001246, "y": 0.535198219580592}, {"type": "position", "time": 40604, "x": 1.0265351458001246, "y": 0.535198219580592}, {"type": "position", "time": 40654, "x": 1.0265351458001246, "y": 0.535198219580592}, {"type": "position", "time": 40704, "x": 1.0265351458001246, "y": 0.535198219580592}, {"type": "position", "time": 40754, "x": 1.0265351458001246, "y": 0.535198219580592}, {"type": "keyup", "time": 40802, "key": "\u0010", "keyCode": 16}, {"type": "position", "time": 40804, "x": 1.0265351458001246, "y": 0.535198219580592}, {"type": "keyup", "time": 40844, "key": "H", "keyCode": 72}, {"type": "position", "time": 40854, "x": 1.0265351458001246, "y": 0.535198219580592}, {"type": "position", "time": 40904, "x": 1.0265351458001246, "y": 0.535198219580592}, {"type": "position", "time": 40954, "x": 1.0265351458001246, "y": 0.535198219580592}, {"type": "keyup", "time": 40985, "key": "E", "keyCode": 69}, {"type": "keyup", "time": 41000, "key": " ", "keyCode": 32}, {"type": "position", "time": 41003, "x": 1.0265351458001246, "y": 0.535198219580592}, {"type": "position", "time": 41053, "x": 1.0265351458001246, "y": 0.535198219580592}, {"type": "position", "time": 41103, "x": 1.0265351458001246, "y": 0.535198219580592}, {"type": "position", "time": 41154, "x": 1.0265351458001246, "y": 0.535198219580592}, {"type": "position", "time": 41204, "x": 1.0265351458001246, "y": 0.535198219580592}, {"type": "position", "time": 41253, "x": 1.0265351458001246, "y": 0.535198219580592}, {"type": "position", "time": 41303, "x": 1.0265351458001246, "y": 0.535198219580592}, {"type": "position", "time": 41353, "x": 1.0265351458001246, "y": 0.535198219580592}, {"type": "keyup", "time": 41374, "key": "W", "keyCode": 87}, {"type": "position", "time": 41403, "x": 1.0265351458001246, "y": 0.535198219580592}, {"type": "position", "time": 41453, "x": 1.0265351458001246, "y": 0.535198219580592}, {"type": "position", "time": 41503, "x": 1.0265351458001246, "y": 0.535198219580592}, {"type": "keyup", "time": 41534, "key": "A", "keyCode": 65}, {"type": "position", "time": 41554, "x": 1.0265351458001246, "y": 0.535198219580592}, {"type": "position", "time": 41605, "x": 1.0265351458001246, "y": 0.535198219580592}, {"type": "position", "time": 41654, "x": 1.0265351458001246, "y": 0.535198219580592}, {"type": "position", "time": 41704, "x": 1.0265351458001246, "y": 0.535198219580592}, {"type": "keyup", "time": 41708, "key": "S", "keyCode": 83}, {"type": "keyup", "time": 41712, "key": "N", "keyCode": 78}, {"type": "position", "time": 41754, "x": 1.0265351458001246, "y": 0.535198219580592}, {"type": "position", "time": 41804, "x": 1.0265351458001246, "y": 0.535198219580592}, {"type": "position", "time": 41854, "x": 1.0265351458001246, "y": 0.535198219580592}, {"type": "position", "time": 41904, "x": 1.0265351458001246, "y": 0.535198219580592}, {"type": "position", "time": 41954, "x": 1.0265351458001246, "y": 0.535198219580592}, {"type": "keyup", "time": 41985, "key": "\u00de", "keyCode": 222}, {"type": "keyup", "time": 42001, "key": "T", "keyCode": 84}, {"type": "position", "time": 42004, "x": 1.0265351458001246, "y": 0.535198219580592}, {"type": "keyup", "time": 42038, "key": " ", "keyCode": 32}, {"type": "position", "time": 42054, "x": 1.0265351458001246, "y": 0.535198219580592}, {"type": "position", "time": 42104, "x": 1.0265351458001246, "y": 0.535198219580592}, {"type": "position", "time": 42154, "x": 1.0265351458001246, "y": 0.535198219580592}, {"type": "position", "time": 42204, "x": 1.0265351458001246, "y": 0.535198219580592}, {"type": "keyup", "time": 42225, "key": "C", "keyCode": 67}, {"type": "position", "time": 42254, "x": 1.0265351458001246, "y": 0.535198219580592}, {"type": "position", "time": 42304, "x": 1.0265351458001246, "y": 0.535198219580592}, {"type": "position", "time": 42354, "x": 1.0265351458001246, "y": 0.535198219580592}, {"type": "position", "time": 42404, "x": 1.0265351458001246, "y": 0.535198219580592}, {"type": "keyup", "time": 42450, "key": "R", "keyCode": 82}, {"type": "keyup", "time": 42453, "key": "E", "keyCode": 69}, {"type": "position", "time": 42453, "x": 1.0265351458001246, "y": 0.535198219580592}, {"type": "position", "time": 42503, "x": 1.0265351458001246, "y": 0.535198219580592}, {"type": "position", "time": 42553, "x": 1.0265351458001246, "y": 0.535198219580592}, {"type": "position", "time": 42604, "x": 1.0265351458001246, "y": 0.535198219580592}, {"type": "keyup", "time": 42633, "key": "A", "keyCode": 65}, {"type": "position", "time": 42653, "x": 1.0265351458001246, "y": 0.535198219580592}, {"type": "position", "time": 42703, "x": 1.0265351458001246, "y": 0.535198219580592}, {"type": "position", "time": 42754, "x": 1.0265351458001246, "y": 0.535198219580592}, {"type": "position", "time": 42803, "x": 1.0265351458001246, "y": 0.535198219580592}, {"type": "keyup", "time": 42853, "key": "T", "keyCode": 84}, {"type": "position", "time": 42853, "x": 1.0265351458001246, "y": 0.535198219580592}, {"type": "position", "time": 42904, "x": 1.0265351458001246, "y": 0.535198219580592}, {"type": "position", "time": 42954, "x": 1.0265351458001246, "y": 0.535198219580592}, {"type": "keyup", "time": 42982, "key": "I", "keyCode": 73}, {"type": "position", "time": 43004, "x": 1.0265351458001246, "y": 0.535198219580592}, {"type": "keyup", "time": 43041, "key": "V", "keyCode": 86}, {"type": "position", "time": 43054, "x": 1.0265351458001246, "y": 0.535198219580592}, {"type": "position", "time": 43104, "x": 1.0265351458001246, "y": 0.535198219580592}, {"type": "position", "time": 43154, "x": 1.0265351458001246, "y": 0.535198219580592}, {"type": "position", "time": 43204, "x": 1.0265351458001246, "y": 0.535198219580592}, {"type": "keyup", "time": 43247, "key": "E", "keyCode": 69}, {"type": "position", "time": 43254, "x": 1.0265351458001246, "y": 0.535198219580592}, {"type": "position", "time": 43304, "x": 1.0265351458001246, "y": 0.535198219580592}, {"type": "position", "time": 43354, "x": 1.0265351458001246, "y": 0.535198219580592}, {"type": "position", "time": 43405, "x": 1.0265351458001246, "y": 0.535198219580592}, {"type": "position", "time": 43455, "x": 1.0265351458001246, "y": 0.535198219580592}, {"type": "position", "time": 43504, "x": 1.0265351458001246, "y": 0.535198219580592}, {"type": "position", "time": 43554, "x": 1.0265351458001246, "y": 0.535198219580592}, {"type": "position", "time": 43604, "x": 1.0265351458001246, "y": 0.535198219580592}, {"type": "position", "time": 43654, "x": 1.0265351458001246, "y": 0.535198219580592}, {"type": "click", "time": 43664, "x": 0.9052514562232524, "y": 0.6419044066620807}, {"type": "position", "time": 43704, "x": 0.9052514562232524, "y": 0.6419044066620807}, {"type": "position", "time": 43754, "x": 0.9052514562232524, "y": 0.6419044066620807}, {"type": "position", "time": 43804, "x": 0.9052514562232524, "y": 0.6419044066620807}, {"type": "position", "time": 43853, "x": 0.9052514562232524, "y": 0.6419044066620807}, {"type": "position", "time": 43903, "x": 0.9052514562232524, "y": 0.6419044066620807}, {"type": "position", "time": 43954, "x": 0.9052514562232524, "y": 0.6419044066620807}, {"type": "position", "time": 44003, "x": 0.9052514562232524, "y": 0.6419044066620807}, {"type": "position", "time": 44053, "x": 0.9052514562232524, "y": 0.6419044066620807}, {"type": "position", "time": 44104, "x": 0.9052514562232524, "y": 0.6419044066620807}, {"type": "position", "time": 44153, "x": 0.9052514562232524, "y": 0.6419044066620807}, {"type": "position", "time": 44290, "x": 0.9390108337343406, "y": 0.8969988851537648}, {"type": "position", "time": 45290, "x": 0.9390108337343406, "y": 0.8969988851537648}, {"type": "position", "time": 46290, "x": 0.9390108337343406, "y": 0.8969988851537648}, {"type": "position", "time": 47291, "x": 0.9390108337343406, "y": 0.8969988851537648}, {"type": "position", "time": 48291, "x": 0.9390108337343406, "y": 0.8969988851537648}, {"type": "position", "time": 49291, "x": 0.9390108337343406, "y": 0.8969988851537648}, {"type": "position", "time": 50291, "x": 0.9390108337343406, "y": 0.8969988851537648}, {"type": "position", "time": 51290, "x": 0.9390108337343406, "y": 0.8969988851537648}, {"type": "position", "time": 52274, "x": 0.9390108337343406, "y": 0.8969988851537648}, {"type": "position", "time": 52304, "x": 0.8702417313969387, "y": 0.18840311156575357}, {"type": "position", "time": 52354, "x": 0.8702417313969387, "y": 0.18840311156575357}, {"type": "position", "time": 52404, "x": 0.8702417313969387, "y": 0.18840311156575357}, {"type": "position", "time": 52454, "x": 0.8702417313969387, "y": 0.18840311156575357}, {"type": "position", "time": 52505, "x": 0.8702417313969387, "y": 0.18840311156575357}, {"type": "position", "time": 52554, "x": 0.8702417313969387, "y": 0.18840311156575357}, {"type": "position", "time": 52605, "x": 0.8702417313969387, "y": 0.18840311156575357}, {"type": "position", "time": 52654, "x": 0.8702417313969387, "y": 0.18840311156575357}, {"type": "position", "time": 52705, "x": 0.8702417313969387, "y": 0.18840311156575357}, {"type": "position", "time": 52755, "x": 0.8702417313969387, "y": 0.18840311156575357}, {"type": "position", "time": 52805, "x": 0.8702417313969387, "y": 0.18840311156575357}, {"type": "position", "time": 52855, "x": 0.8702417313969387, "y": 0.18840311156575357}, {"type": "slider", "time": 52885, "value": 0.24}, {"type": "click", "time": 52888, "x": 0.7277021374612332, "y": 0.6802519426444907}, {"type": "position", "time": 52905, "x": 0.7277021374612332, "y": 0.6802519426444907}, {"type": "position", "time": 52956, "x": 0.7277021374612332, "y": 0.6802519426444907}, {"type": "position", "time": 53005, "x": 0.7277021374612332, "y": 0.6802519426444907}, {"type": "position", "time": 53055, "x": 0.7277021374612332, "y": 0.6802519426444907}, {"type": "position", "time": 53105, "x": 0.7277021374612332, "y": 0.6802519426444907}, {"type": "position", "time": 53156, "x": 0.7277021374612332, "y": 0.6802519426444907}, {"type": "keyup", "time": 53158, "key": "V", "keyCode": 86}, {"type": "position", "time": 53205, "x": 0.7277021374612332, "y": 0.6802519426444907}, {"type": "position", "time": 53255, "x": 0.7277021374612332, "y": 0.6802519426444907}, {"type": "position", "time": 53305, "x": 0.7277021374612332, "y": 0.6802519426444907}, {"type": "position", "time": 53355, "x": 0.7277021374612332, "y": 0.6802519426444907}, {"type": "position", "time": 53406, "x": 0.7277021374612332, "y": 0.6802519426444907}, {"type": "position", "time": 53455, "x": 0.7277021374612332, "y": 0.6802519426444907}, {"type": "keyup", "time": 53457, "key": "\u0011", "keyCode": 17}, {"type": "position", "time": 53505, "x": 0.7277021374612332, "y": 0.6802519426444907}, {"type": "position", "time": 53555, "x": 0.7277021374612332, "y": 0.6802519426444907}, {"type": "position", "time": 53605, "x": 0.7277021374612332, "y": 0.6802519426444907}, {"type": "position", "time": 53655, "x": 0.7277021374612332, "y": 0.6802519426444907}, {"type": "position", "time": 53704, "x": 0.7277021374612332, "y": 0.6802519426444907}, {"type": "position", "time": 53754, "x": 0.7277021374612332, "y": 0.6802519426444907}, {"type": "position", "time": 53805, "x": 0.7277021374612332, "y": 0.6802519426444907}, {"type": "position", "time": 53854, "x": 0.7277021374612332, "y": 0.6802519426444907}, {"type": "position", "time": 53904, "x": 0.7277021374612332, "y": 0.6802519426444907}, {"type": "position", "time": 53954, "x": 0.7277021374612332, "y": 0.6802519426444907}, {"type": "position", "time": 54004, "x": 0.7277021374612332, "y": 0.6802519426444907}, {"type": "position", "time": 54055, "x": 0.7277021374612332, "y": 0.6802519426444907}, {"type": "position", "time": 54104, "x": 0.7277021374612332, "y": 0.6802519426444907}, {"type": "position", "time": 54155, "x": 0.7277021374612332, "y": 0.6802519426444907}, {"type": "position", "time": 54206, "x": 0.7277021374612332, "y": 0.6802519426444907}, {"type": "position", "time": 54291, "x": 0.8702417313969387, "y": 0.18840311156575357}, {"type": "position", "time": 55291, "x": 0.8702417313969387, "y": 0.18840311156575357}, {"type": "position", "time": 56291, "x": 0.8702417313969387, "y": 0.18840311156575357}, {"type": "position", "time": 57291, "x": 0.8702417313969387, "y": 0.18840311156575357}, {"type": "position", "time": 58291, "x": 0.8702417313969387, "y": 0.18840311156575357}, {"type": "position", "time": 58547, "x": 0.8702417313969387, "y": 0.18840311156575357}, {"type": "position", "time": 58558, "x": 0.8702417313969387, "y": 0.18840311156575357}, {"type": "position", "time": 58605, "x": 0.7402056106134881, "y": 0.6135605757185603}, {"type": "keyup", "time": 58637, "key": "\u0011", "keyCode": 17}, {"type": "position", "time": 58655, "x": 0.7402056106134881, "y": 0.6135605757185603}, {"type": "position", "time": 58706, "x": 0.7402056106134881, "y": 0.6135605757185603}, {"type": "position", "time": 58755, "x": 0.7402056106134881, "y": 0.6135605757185603}, {"type": "position", "time": 58805, "x": 0.7402056106134881, "y": 0.6135605757185603}, {"type": "position", "time": 58855, "x": 0.7402056106134881, "y": 0.6135605757185603}, {"type": "position", "time": 58906, "x": 0.7402056106134881, "y": 0.6135605757185603}, {"type": "position", "time": 58955, "x": 0.7402056106134881, "y": 0.573545755563002}, {"type": "position", "time": 59005, "x": 0.7314531794069098, "y": 0.5101889569833681}, {"type": "position", "time": 59056, "x": 0.7227007482003314, "y": 0.4685068526546615}, {"type": "position", "time": 59105, "x": 0.7227007482003314, "y": 0.46683956848151326}, {"type": "position", "time": 59155, "x": 0.7252014428307824, "y": 0.46683956848151326}, {"type": "position", "time": 59205, "x": 0.7252014428307824, "y": 0.46683956848151326}, {"type": "position", "time": 59255, "x": 0.7402056106134881, "y": 0.44516487423058587}, {"type": "position", "time": 59305, "x": 0.7402056106134881, "y": 0.44516487423058587}, {"type": "position", "time": 59354, "x": 0.7402056106134881, "y": 0.44516487423058587}, {"type": "position", "time": 59404, "x": 0.7402056106134881, "y": 0.44516487423058587}, {"type": "position", "time": 59454, "x": 0.7402056106134881, "y": 0.44516487423058587}, {"type": "position", "time": 59505, "x": 0.7402056106134881, "y": 0.44516487423058587}, {"type": "position", "time": 59554, "x": 0.7402056106134881, "y": 0.44516487423058587}, {"type": "position", "time": 59604, "x": 0.7402056106134881, "y": 0.44516487423058587}, {"type": "position", "time": 59654, "x": 0.7402056106134881, "y": 0.44516487423058587}, {"type": "position", "time": 59705, "x": 0.7402056106134881, "y": 0.44516487423058587}, {"type": "position", "time": 59755, "x": 0.7402056106134881, "y": 0.44516487423058587}, {"type": "position", "time": 59805, "x": 0.7402056106134881, "y": 0.44516487423058587}, {"type": "position", "time": 59856, "x": 0.7402056106134881, "y": 0.44516487423058587}, {"type": "position", "time": 59906, "x": 0.7402056106134881, "y": 0.44516487423058587}, {"type": "position", "time": 59955, "x": 0.7402056106134881, "y": 0.44516487423058587}, {"type": "position", "time": 60005, "x": 0.7402056106134881, "y": 0.44516487423058587}, {"type": "position", "time": 60055, "x": 0.7402056106134881, "y": 0.44516487423058587}, {"type": "position", "time": 60105, "x": 0.7402056106134881, "y": 0.44516487423058587}, {"type": "position", "time": 60155, "x": 0.7402056106134881, "y": 0.44516487423058587}, {"type": "click", "time": 60182, "x": 0.9065018035384779, "y": 0.7919599822454243}, {"type": "position", "time": 60205, "x": 0.9065018035384779, "y": 0.7919599822454243}, {"type": "position", "time": 60255, "x": 0.9065018035384779, "y": 0.7919599822454243}, {"type": "position", "time": 60305, "x": 0.9065018035384779, "y": 0.7919599822454243}, {"type": "position", "time": 60355, "x": 0.9065018035384779, "y": 0.7919599822454243}, {"type": "position", "time": 60406, "x": 0.9065018035384779, "y": 0.7919599822454243}, {"type": "position", "time": 60455, "x": 0.9065018035384779, "y": 0.7919599822454243}, {"type": "position", "time": 60505, "x": 0.9065018035384779, "y": 0.7919599822454243}, {"type": "position", "time": 60555, "x": 0.9065018035384779, "y": 0.7919599822454243}, {"type": "position", "time": 60605, "x": 0.9065018035384779, "y": 0.7919599822454243}, {"type": "position", "time": 60655, "x": 0.9065018035384779, "y": 0.7919599822454243}, {"type": "position", "time": 60705, "x": 0.9065018035384779, "y": 0.7919599822454243}, {"type": "position", "time": 60754, "x": 0.9065018035384779, "y": 0.7919599822454243}, {"type": "slider", "time": 60773, "value": 0.71}, {"type": "click", "time": 60774, "x": 1.0252847984848992, "y": 0.5935531656407812}, {"type": "position", "time": 60805, "x": 1.0252847984848992, "y": 0.5935531656407812}, {"type": "position", "time": 60854, "x": 1.0252847984848992, "y": 0.5935531656407812}, {"type": "position", "time": 60904, "x": 1.0252847984848992, "y": 0.5935531656407812}, {"type": "position", "time": 60954, "x": 1.0252847984848992, "y": 0.5935531656407812}, {"type": "click", "time": 60987, "x": 0.8902472884405466, "y": 0.6935902160296769}, {"type": "position", "time": 61004, "x": 0.8902472884405466, "y": 0.6935902160296769}, {"type": "position", "time": 61054, "x": 0.8902472884405466, "y": 0.6935902160296769}, {"type": "position", "time": 61106, "x": 0.8902472884405466, "y": 0.6935902160296769}, {"type": "position", "time": 61155, "x": 0.8902472884405466, "y": 0.6935902160296769}, {"type": "position", "time": 61205, "x": 0.8902472884405466, "y": 0.6935902160296769}, {"type": "position", "time": 61255, "x": 0.8902472884405466, "y": 0.6935902160296769}, {"type": "position", "time": 61305, "x": 0.8902472884405466, "y": 0.6935902160296769}, {"type": "position", "time": 61355, "x": 0.8902472884405466, "y": 0.6935902160296769}, {"type": "position", "time": 61405, "x": 0.8902472884405466, "y": 0.6935902160296769}, {"type": "slider", "time": 61429, "value": 0.58}, {"type": "click", "time": 61430, "x": 0.9390108337343406, "y": 0.5935531656407812}, {"type": "position", "time": 61456, "x": 0.9390108337343406, "y": 0.5935531656407812}, {"type": "position", "time": 61505, "x": 0.9390108337343406, "y": 0.5935531656407812}, {"type": "position", "time": 61556, "x": 0.9390108337343406, "y": 0.5935531656407812}, {"type": "position", "time": 61605, "x": 0.9390108337343406, "y": 0.5935531656407812}, {"type": "position", "time": 61655, "x": 0.9390108337343406, "y": 0.5935531656407812}, {"type": "click", "time": 61679, "x": 0.8802445099187427, "y": 0.6935902160296769}, {"type": "position", "time": 61706, "x": 0.8802445099187427, "y": 0.6935902160296769}, {"type": "position", "time": 61755, "x": 0.8802445099187427, "y": 0.6935902160296769}, {"type": "position", "time": 61805, "x": 0.8802445099187427, "y": 0.6935902160296769}, {"type": "position", "time": 61855, "x": 0.8802445099187427, "y": 0.6935902160296769}, {"type": "position", "time": 61906, "x": 0.8802445099187427, "y": 0.6935902160296769}, {"type": "position", "time": 61955, "x": 0.8802445099187427, "y": 0.6935902160296769}, {"type": "position", "time": 62005, "x": 0.8802445099187427, "y": 0.6935902160296769}, {"type": "position", "time": 62055, "x": 0.8802445099187427, "y": 0.6935902160296769}, {"type": "slider", "time": 62076, "value": 0.85}, {"type": "click", "time": 62079, "x": 1.1090580686050067, "y": 0.5935531656407812}, {"type": "position", "time": 62105, "x": 1.1090580686050067, "y": 0.5935531656407812}, {"type": "position", "time": 62155, "x": 1.1090580686050067, "y": 0.5935531656407812}, {"type": "position", "time": 62204, "x": 1.1090580686050067, "y": 0.5935531656407812}, {"type": "position", "time": 62254, "x": 1.1090580686050067, "y": 0.5935531656407812}, {"type": "click", "time": 62317, "x": 0.8927479830709976, "y": 0.7002593527222699}, {"type": "position", "time": 62318, "x": 0.8927479830709976, "y": 0.7002593527222699}, {"type": "position", "time": 62354, "x": 0.8927479830709976, "y": 0.7002593527222699}, {"type": "position", "time": 62404, "x": 0.8927479830709976, "y": 0.7002593527222699}, {"type": "posit