{"ApprovalTime": "2016-03-10T21:10:27Z", "SubmitTime": "2016-03-10T21:09:09Z", "AssignmentId": "3AAPLD8UCCHMID2YFXFA7O7UQ04THT", "HITId": "38G0E1M85M53D7EEUOHN21OJ7HQVU5", "answers": {"data": {"trials": [{"story": "insomnia", "time": 65418, "name": "Jacqueline", "rt": 5558, "blocknum": 0, "qtype": "probability", "response": 0.5, "trialnum": 1, "gender": "female", "qnum": 0}, {"story": "insomnia", "time": 65418, "name": "Jacqueline", "rt": 5558, "blocknum": 0, "qtype": "ungrammatical", "trialnum": 1, "gender": "female", "qnum": 0}, {"story": "insomnia", "time": 82673, "name": "Alexandra", "rt": 17252, "blocknum": 0, "qtype": "explanation", "response": "She was tired", "trialnum": 2, "gender": "female", "qnum": 1}, {"story": "insomnia", "time": 84349, "name": "Alexandra", "rt": 1667, "blocknum": 0, "qtype": "probability", "response": 0.67, "trialnum": 3, "gender": "female", "qnum": 2}, {"story": "insomnia", "time": 84349, "name": "Alexandra", "rt": 1667, "blocknum": 0, "qtype": "ungrammatical", "trialnum": 3, "gender": "female", "qnum": 2}, {"story": "insomnia", "time": 85596, "name": "Olivia", "rt": 1241, "blocknum": 0, "qtype": "probability", "response": 0.45, "trialnum": 4, "gender": "female", "qnum": 3}, {"story": "insomnia", "time": 85596, "name": "Olivia", "rt": 1241, "blocknum": 0, "qtype": "ungrammatical", "response": false, "trialnum": 4, "gender": "female", "qnum": 3}, {"story": "insomnia", "time": 86654, "name": "Kenneth", "rt": 1053, "blocknum": 0, "qtype": "probability", "response": 0.66, "trialnum": 5, "gender": "male", "qnum": 4}, {"story": "insomnia", "time": 86654, "name": "Kenneth", "rt": 1053, "blocknum": 0, "qtype": "ungrammatical", "response": false, "trialnum": 5, "gender": "male", "qnum": 4}, {"story": "insomnia", "time": 88629, "name": "Chelsea", "rt": 1966, "blocknum": 0, "qtype": "probability", "response": 0.82, "trialnum": 6, "gender": "female", "qnum": 5}, {"story": "insomnia", "time": 88629, "name": "Chelsea", "rt": 1966, "blocknum": 0, "qtype": "ungrammatical", "response": false, "trialnum": 6, "gender": "female", "qnum": 5}, {"story": "Japan", "time": 89917, "name": "Elizabeth", "rt": 1281, "blocknum": 1, "qtype": "probability", "response": 0.59, "trialnum": 8, "gender": "female", "qnum": 0}, {"story": "Japan", "time": 89917, "name": "Elizabeth", "rt": 1281, "blocknum": 1, "qtype": "ungrammatical", "trialnum": 8, "gender": "female", "qnum": 0}, {"story": "Japan", "time": 98602, "name": "Paige", "rt": 8683, "blocknum": 1, "qtype": "explanation", "response": "No one was talking?", "trialnum": 9, "gender": "female", "qnum": 1}, {"story": "Japan", "time": 257878, "name": "Paige", "rt": 159271, "blocknum": 1, "qtype": "probability", "response": 0.68, "trialnum": 10, "gender": "female", "qnum": 2}, {"story": "Japan", "time": 257878, "name": "Paige", "rt": 159271, "blocknum": 1, "qtype": "ungrammatical", "trialnum": 10, "gender": "female", "qnum": 2}, {"story": "Japan", "time": 258875, "name": "Luis", "rt": 993, "blocknum": 1, "qtype": "probability", "response": 0.5, "trialnum": 11, "gender": "male", "qnum": 3}, {"story": "Japan", "time": 258875, "name": "Luis", "rt": 993, "blocknum": 1, "qtype": "ungrammatical", "response": false, "trialnum": 11, "gender": "male", "qnum": 3}, {"story": "Japan", "time": 260253, "name": "Jason", "rt": 1375, "blocknum": 1, "qtype": "probability", "response": 0.33, "trialnum": 12, "gender": "male", "qnum": 4}, {"story": "Japan", "time": 260253, "name": "Jason", "rt": 1375, "blocknum": 1, "qtype": "ungrammatical", "response": false, "trialnum": 12, "gender": "male", "qnum": 4}, {"story": "Japan", "time": 262333, "name": "Carlos", "rt": 2076, "blocknum": 1, "qtype": "probability", "response": 0.65, "trialnum": 13, "gender": "male", "qnum": 5}, {"story": "Japan", "time": 262333, "name": "Carlos", "rt": 2076, "blocknum": 1, "qtype": "ungrammatical", "response": false, "trialnum": 13, "gender": "male", "qnum": 5}, {"story": "cooking", "time": 264413, "name": "Tyler", "rt": 2074, "blocknum": 2, "qtype": "probability", "response": 0.75, "trialnum": 15, "gender": "male", "qnum": 0}, {"story": "cooking", "time": 264413, "name": "Tyler", "rt": 2074, "blocknum": 2, "qtype": "ungrammatical", "trialnum": 15, "gender": "male", "qnum": 0}, {"story": "cooking", "time": 291873, "name": "Andrew", "rt": 27457, "blocknum": 2, "qtype": "explanation", "response": "He wasn't paying attention", "trialnum": 16, "gender": "male", "qnum": 1}, {"story": "cooking", "time": 293252, "name": "Andrew", "rt": 1376, "blocknum": 2, "qtype": "probability", "response": 0.69, "trialnum": 17, "gender": "male", "qnum": 2}, {"story": "cooking", "time": 293252, "name": "Andrew", "rt": 1376, "blocknum": 2, "qtype": "ungrammatical", "trialnum": 17, "gender": "male", "qnum": 2}, {"story": "cooking", "time": 299908, "name": "Cameron", "rt": 6651, "blocknum": 2, "qtype": "probability", "response": 0.69, "trialnum": 18, "gender": "male", "qnum": 3}, {"story": "cooking", "time": 299908, "name": "Cameron", "rt": 6651, "blocknum": 2, "qtype": "ungrammatical", "response": false, "trialnum": 18, "gender": "male", "qnum": 3}, {"story": "cooking", "time": 301674, "name": "Danielle", "rt": 1763, "blocknum": 2, "qtype": "probability", "response": 0.47, "trialnum": 19, "gender": "female", "qnum": 4}, {"story": "cooking", "time": 301674, "name": "Danielle", "rt": 1763, "blocknum": 2, "qtype": "ungrammatical", "response": false, "trialnum": 19, "gender": "female", "qnum": 4}, {"story": "cooking", "time": 302660, "name": "Allison", "rt": 979, "blocknum": 2, "qtype": "probability", "response": 0.75, "trialnum": 20, "gender": "female", "qnum": 5}, {"story": "cooking", "time": 302660, "name": "Allison", "rt": 979, "blocknum": 2, "qtype": "ungrammatical", "response": false, "trialnum": 20, "gender": "female", "qnum": 5}, {"story": "beach", "time": 305324, "name": "Kayla", "rt": 2659, "blocknum": 3, "qtype": "probability", "response": 0.84, "trialnum": 22, "gender": "female", "qnum": 0}, {"story": "beach", "time": 305324, "name": "Kayla", "rt": 2659, "blocknum": 3, "qtype": "ungrammatical", "trialnum": 22, "gender": "female", "qnum": 0}, {"story": "beach", "time": 311244, "name": "Christian", "rt": 5919, "blocknum": 3, "qtype": "explanation", "response": "Not looking the right way", "trialnum": 23, "gender": "male", "qnum": 1}, {"story": "beach", "time": 313568, "name": "Christian", "rt": 2318, "blocknum": 3, "qtype": "probability", "response": 0.73, "trialnum": 24, "gender": "male", "qnum": 2}, {"story": "beach", "time": 313568, "name": "Christian", "rt": 2318, "blocknum": 3, "qtype": "ungrammatical", "trialnum": 24, "gender": "male", "qnum": 2}, {"story": "beach", "time": 315482, "name": "Jeff", "rt": 1909, "blocknum": 3, "qtype": "probability", "response": 0.58, "trialnum": 25, "gender": "male", "qnum": 3}, {"story": "beach", "time": 315482, "name": "Jeff", "rt": 1909, "blocknum": 3, "qtype": "ungrammatical", "response": false, "trialnum": 25, "gender": "male", "qnum": 3}, {"story": "beach", "time": 318378, "name": "Jared", "rt": 2893, "blocknum": 3, "qtype": "probability", "response": 0.7, "trialnum": 26, "gender": "male", "qnum": 4}, {"story": "beach", "time": 318378, "name": "Jared", "rt": 2893, "blocknum": 3, "qtype": "ungrammatical", "response": false, "trialnum": 26, "gender": "male", "qnum": 4}, {"story": "beach", "time": 323492, "name": "John", "rt": 5108, "blocknum": 3, "qtype": "probability", "response": 0.88, "trialnum": 27, "gender": "male", "qnum": 5}, {"story": "beach", "time": 323492, "name": "John", "rt": 5108, "blocknum": 3, "qtype": "ungrammatical", "response": false, "trialnum": 27, "gender": "male", "qnum": 5}, {"story": "painting", "time": 325772, "name": "Jasmine", "rt": 2273, "blocknum": 4, "qtype": "probability", "response": 0.87, "trialnum": 29, "gender": "female", "qnum": 0}, {"story": "painting", "time": 325772, "name": "Jasmine", "rt": 2273, "blocknum": 4, "qtype": "ungrammatical", "trialnum": 29, "gender": "female", "qnum": 0}, {"story": "painting", "time": 370533, "name": "Ashley", "rt": 44759, "blocknum": 4, "qtype": "explanation", "response": "She wasn't concentrating", "trialnum": 30, "gender": "female", "qnum": 1}, {"story": "painting", "time": 371704, "name": "Ashley", "rt": 1167, "blocknum": 4, "qtype": "probability", "response": 0.74, "trialnum": 31, "gender": "female", "qnum": 2}, {"story": "painting", "time": 371704, "name": "Ashley", "rt": 1167, "blocknum": 4, "qtype": "ungrammatical", "trialnum": 31, "gender": "female", "qnum": 2}, {"story": "painting", "time": 372888, "name": "Juan", "rt": 1181, "blocknum": 4, "qtype": "probability", "response": 0.61, "trialnum": 32, "gender": "male", "qnum": 3}, {"story": "painting", "time": 372888, "name": "Juan", "rt": 1181, "blocknum": 4, "qtype": "ungrammatical", "response": false, "trialnum": 32, "gender": "male", "qnum": 3}, {"story": "painting", "time": 374020, "name": "Joshua", "rt": 1128, "blocknum": 4, "qtype": "probability", "response": 0.77, "trialnum": 33, "gender": "male", "qnum": 4}, {"story": "painting", "time": 374020, "name": "Joshua", "rt": 1128, "blocknum": 4, "qtype": "ungrammatical", "response": false, "trialnum": 33, "gender": "male", "qnum": 4}, {"story": "painting", "time": 375029, "name": "Brandon", "rt": 1005, "blocknum": 4, "qtype": "probability", "response": 0.44, "trialnum": 34, "gender": "male", "qnum": 5}, {"story": "painting", "time": 375029, "name": "Brandon", "rt": 1005, "blocknum": 4, "qtype": "ungrammatical", "response": false, "trialnum": 34, "gender": "male", "qnum": 5}, {"story": "coffee", "time": 376125, "name": "David", "rt": 1092, "blocknum": 5, "qtype": "probability", "response": 0.74, "trialnum": 36, "gender": "male", "qnum": 0}, {"story": "coffee", "time": 376125, "name": "David", "rt": 1092, "blocknum": 5, "qtype": "ungrammatical", "trialnum": 36, "gender": "male", "qnum": 0}, {"story": "coffee", "time": 389838, "name": "Stephanie", "rt": 13711, "blocknum": 5, "qtype": "explanation", "response": "Too tired from lack of sleep", "trialnum": 37, "gender": "female", "qnum": 1}, {"story": "coffee", "time": 391165, "name": "Stephanie", "rt": 1323, "blocknum": 5, "qtype": "probability", "response": 0.82, "trialnum": 38, "gender": "female", "qnum": 2}, {"story": "coffee", "time": 391165, "name": "Stephanie", "rt": 1323, "blocknum": 5, "qtype": "ungrammatical", "trialnum": 38, "gender": "female", "qnum": 2}, {"story": "coffee", "time": 392410, "name": "Ian", "rt": 1240, "blocknum": 5, "qtype": "probability", "response": 0.61, "trialnum": 39, "gender": "male", "qnum": 3}, {"story": "coffee", "time": 392410, "name": "Ian", "rt": 1240, "blocknum": 5, "qtype": "ungrammatical", "response": false, "trialnum": 39, "gender": "male", "qnum": 3}, {"story": "coffee", "time": 394008, "name": "Michelle", "rt": 1595, "blocknum": 5, "qtype": "probability", "response": 0.87, "trialnum": 40, "gender": "female", "qnum": 4}, {"story": "coffee", "time": 394008, "name": "Michelle", "rt": 1595, "blocknum": 5, "qtype": "ungrammatical", "response": false, "trialnum": 40, "gender": "female", "qnum": 4}, {"story": "coffee", "time": 395494, "name": "Jeremy", "rt": 1482, "blocknum": 5, "qtype": "probability", "response": 0.56, "trialnum": 41, "gender": "male", "qnum": 5}, {"story": "coffee", "time": 395494, "name": "Jeremy", "rt": 1482, "blocknum": 5, "qtype": "ungrammatical", "response": false, "trialnum": 41, "gender": "male", "qnum": 5}, {"story": "reading", "time": 397455, "name": "Anna", "rt": 1956, "blocknum": 6, "qtype": "probability", "response": 0.77, "trialnum": 43, "gender": "female", "qnum": 0}, {"story": "reading", "time": 397455, "name": "Anna", "rt": 1956, "blocknum": 6, "qtype": "ungrammatical", "trialnum": 43, "gender": "female", "qnum": 0}, {"story": "reading", "time": 407983, "name": "Cassandra", "rt": 10526, "blocknum": 6, "qtype": "explanation", "response": "Took an advil", "trialnum": 44, "gender": "female", "qnum": 1}, {"story": "reading", "time": 409188, "name": "Cassandra", "rt": 1200, "blocknum": 6, "qtype": "probability", "response": 0.64, "trialnum": 45, "gender": "female", "qnum": 2}, {"story": "reading", "time": 409188, "name": "Cassandra", "rt": 1200, "blocknum": 6, "qtype": "ungrammatical", "trialnum": 45, "gender": "female", "qnum": 2}, {"story": "reading", "time": 410772, "name": "Shannon", "rt": 1580, "blocknum": 6, "qtype": "probability", "response": 0.85, "trialnum": 46, "gender": "female", "qnum": 3}, {"story": "reading", "time": 410772, "name": "Shannon", "rt": 1580, "blocknum": 6, "qtype": "ungrammatical", "response": false, "trialnum": 46, "gender": "female", "qnum": 3}, {"story": "reading", "time": 411849, "name": "Andrea", "rt": 1073, "blocknum": 6, "qtype": "probability", "response": 0.63, "trialnum": 47, "gender": "female", "qnum": 4}, {"story": "reading", "time": 411849, "name": "Andrea", "rt": 1073, "blocknum": 6, "qtype": "ungrammatical", "response": false, "trialnum": 47, "gender": "female", "qnum": 4}, {"story": "reading", "time": 412687, "name": "Noah", "rt": 833, "blocknum": 6, "qtype": "probability", "response": 0.72, "trialnum": 48, "gender": "male", "qnum": 5}, {"story": "reading", "time": 412687, "name": "Noah", "rt": 833, "blocknum": 6, "qtype": "ungrammatical", "response": false, "trialnum": 48, "gender": "male", "qnum": 5}, {"story": "guitar", "time": 414365, "name": "Brooke", "rt": 1672, "blocknum": 7, "qtype": "probability", "response": 0.85, "trialnum": 50, "gender": "female", "qnum": 0}, {"story": "guitar", "time": 414365, "name": "Brooke", "rt": 1672, "blocknum": 7, "qtype": "ungrammatical", "trialnum": 50, "gender": "female", "qnum": 0}, {"story": "guitar", "time": 429557, "name": "Jordan", "rt": 15190, "blocknum": 7, "qtype": "explanation", "response": "He used a pick", "trialnum": 51, "gender": "male", "qnum": 1}, {"story": "guitar", "time": 431228, "name": "Jordan", "rt": 1667, "blocknum": 7, "qtype": "probability", "response": 0.77, "trialnum": 52, "gender": "male", "qnum": 2}, {"story": "guitar", "time": 431228, "name": "Jordan", "rt": 1667, "blocknum": 7, "qtype": "ungrammatical", "trialnum": 52, "gender": "male", "qnum": 2}, {"story": "guitar", "time": 433133, "name": "Greg", "rt": 1901, "blocknum": 7, "qtype": "probability", "response": 0.5, "trialnum": 53, "gender": "male", "qnum": 3}, {"story": "guitar", "time": 433133, "name": "Greg", "rt": 1901, "blocknum": 7, "qtype": "ungrammatical", "response": false, "trialnum": 53, "gender": "male", "qnum": 3}, {"story": "guitar", "time": 434051, "name": "Sean", "rt": 914, "blocknum": 7, "qtype": "probability", "response": 0.82, "trialnum": 54, "gender": "male", "qnum": 4}, {"story": "guitar", "time": 434051, "name": "Sean", "rt": 914, "blocknum": 7, "qtype": "ungrammatical", "response": false, "trialnum": 54, "gender": "male", "qnum": 4}, {"story": "guitar", "time": 435086, "name": "Nicholas", "rt": 1030, "blocknum": 7, "qtype": "probability", "response": 0.75, "trialnum": 55, "gender": "male", "qnum": 5}, {"story": "guitar", "time": 435086, "name": "Nicholas", "rt": 1030, "blocknum": 7, "qtype": "ungrammatical", "response": false, "trialnum": 55, "gender": "male", "qnum": 5}, {"story": "fitness", "time": 437046, "name": "Kristen", "rt": 1955, "blocknum": 8, "qtype": "probability", "response": 0.93, "trialnum": 57, "gender": "female", "qnum": 0}, {"story": "fitness", "time": 437046, "name": "Kristen", "rt": 1955, "blocknum": 8, "qtype": "ungrammatical", "trialnum": 57, "gender": "female", "qnum": 0}, {"story": "fitness", "time": 441260, "name": "Abigail", "rt": 4213, "blocknum": 8, "qtype": "explanation", "response": "Ate too much", "trialnum": 58, "gender": "female", "qnum": 1}, {"story": "fitness", "time": 442493, "name": "Abigail", "rt": 1230, "blocknum": 8, "qtype": "probability", "response": 0.83, "trialnum": 59, "gender": "female", "qnum": 2}, {"story": "fitness", "time": 442493, "name": "Abigail", "rt": 1230, "blocknum": 8, "qtype": "ungrammatical", "trialnum": 59, "gender": "female", "qnum": 2}, {"story": "fitness", "time": 443539, "name": "Daniel", "rt": 1041, "blocknum": 8, "qtype": "probability", "response": 0.62, "trialnum": 60, "gender": "male", "qnum": 3}, {"story": "fitness", "time": 443539, "name": "Daniel", "rt": 1041, "blocknum": 8, "qtype": "ungrammatical", "response": false, "trialnum": 60, "gender": "male", "qnum": 3}, {"story": "fitness", "time": 444480, "name": "Kim", "rt": 938, "blocknum": 8, "qtype": "probability", "response": 0.84, "trialnum": 61, "gender": "female", "qnum": 4}, {"story": "fitness", "time": 444480, "name": "Kim", "rt": 938, "blocknum": 8, "qtype": "ungrammatical", "response": false, "trialnum": 61, "gender": "female", "qnum": 4}, {"story": "fitness", "time": 445456, "name": "Jessica", "rt": 972, "blocknum": 8, "qtype": "probability", "response": 0.71, "trialnum": 62, "gender": "female", "qnum": 5}, {"story": "fitness", "time": 445456, "name": "Jessica", "rt": 972, "blocknum": 8, "qtype": "ungrammatical", "response": false, "trialnum": 62, "gender": "female", "qnum": 5}], "events": [{"type": "position", "time": 646, "x": 0, "y": 0}, {"type": "position", "time": 1237, "x": 0, "y": 0}, {"type": "position", "time": 2229, "x": 0, "y": 0}, {"type": "position", "time": 3229, "x": 0, "y": 0}, {"type": "position", "time": 4229, "x": 0, "y": 0}, {"type": "position", "time": 5229, "x": 0, "y": 0}, {"type": "position", "time": 6229, "x": 0, "y": 0}, {"type": "position", "time": 7230, "x": 0, "y": 0}, {"type": "position", "time": 8229, "x": 0, "y": 0}, {"type": "position", "time": 9230, "x": 0, "y": 0}, {"type": "position", "time": 10230, "x": 0, "y": 0}, {"type": "position", "time": 11230, "x": 0, "y": 0}, {"type": "position", "time": 12230, "x": 0, "y": 0}, {"type": "position", "time": 13230, "x": 0, "y": 0}, {"type": "position", "time": 14230, "x": 0, "y": 0}, {"type": "position", "time": 15231, "x": 0, "y": 0}, {"type": "position", "time": 16231, "x": 0, "y": 0}, {"type": "position", "time": 17231, "x": 0, "y": 0}, {"type": "position", "time": 18142, "x": 0, "y": 0}, {"type": "position", "time": 18171, "x": 0, "y": 0}, {"type": "position", "time": 18221, "x": 0, "y": 0}, {"type": "position", "time": 18271, "x": 0, "y": 0}, {"type": "position", "time": 18321, "x": 0, "y": 0}, {"type": "position", "time": 18371, "x": 0, "y": 0}, {"type": "position", "time": 18421, "x": 0, "y": 0}, {"type": "position", "time": 18471, "x": 0, "y": 0}, {"type": "position", "time": 18521, "x": 0, "y": 0}, {"type": "position", "time": 18571, "x": 0, "y": 0}, {"type": "position", "time": 18621, "x": 0, "y": 0}, {"type": "position", "time": 18671, "x": 0, "y": 0}, {"type": "position", "time": 18721, "x": 0, "y": 0}, {"type": "position", "time": 18771, "x": 0, "y": 0}, {"type": "position", "time": 18821, "x": 0, "y": 0}, {"type": "position", "time": 18871, "x": 0, "y": 0}, {"type": "position", "time": 18921, "x": 0, "y": 0}, {"type": "position", "time": 18971, "x": 0, "y": 0}, {"type": "position", "time": 19021, "x": 0, "y": 0}, {"type": "position", "time": 19071, "x": 0, "y": 0}, {"type": "position", "time": 19121, "x": 0, "y": 0}, {"type": "position", "time": 19171, "x": 0, "y": 0}, {"type": "position", "time": 19221, "x": 0, "y": 0}, {"type": "position", "time": 19271, "x": 0, "y": 0}, {"type": "position", "time": 19321, "x": 0, "y": 0}, {"type": "position", "time": 19371, "x": 0, "y": 0}, {"type": "position", "time": 19421, "x": 0, "y": 0}, {"type": "position", "time": 19471, "x": 0, "y": 0}, {"type": "position", "time": 19521, "x": 0, "y": 0}, {"type": "position", "time": 19571, "x": 0, "y": 0}, {"type": "position", "time": 19621, "x": 0, "y": 0}, {"type": "position", "time": 19671, "x": 0, "y": 0}, {"type": "position", "time": 19721, "x": 0, "y": 0}, {"type": "position", "time": 19771, "x": 0, "y": 0}, {"type": "position", "time": 19821, "x": 0, "y": 0}, {"type": "position", "time": 19871, "x": 0, "y": 0}, {"type": "position", "time": 19921, "x": 0, "y": 0}, {"type": "position", "time": 19971, "x": 0, "y": 0}, {"type": "position", "time": 20021, "x": 0, "y": 0}, {"type": "position", "time": 20071, "x": 0, "y": 0}, {"type": "position", "time": 20121, "x": 0, "y": 0}, {"type": "position", "time": 20171, "x": 0, "y": 0}, {"type": "position", "time": 20221, "x": 0, "y": 0}, {"type": "position", "time": 20271, "x": 0, "y": 0}, {"type": "position", "time": 20321, "x": 0, "y": 0}, {"type": "position", "time": 20371, "x": 0, "y": 0}, {"type": "position", "time": 20421, "x": 0, "y": 0}, {"type": "position", "time": 20471, "x": 0, "y": 0}, {"type": "position", "time": 20521, "x": 0, "y": 0}, {"type": "position", "time": 20571, "x": 0, "y": 0}, {"type": "position", "time": 20621, "x": 0, "y": 0}, {"type": "position", "time": 20671, "x": 0, "y": 0}, {"type": "position", "time": 20721, "x": 0, "y": 0}, {"type": "position", "time": 20771, "x": 0, "y": 0}, {"type": "position", "time": 20821, "x": 0, "y": 0}, {"type": "position", "time": 20871, "x": 0, "y": 0}, {"type": "position", "time": 20922, "x": 0, "y": 0}, {"type": "position", "time": 20971, "x": 0, "y": 0}, {"type": "position", "time": 21021, "x": 0, "y": 0}, {"type": "position", "time": 21071, "x": 0, "y": 0}, {"type": "position", "time": 21121, "x": 0, "y": 0}, {"type": "position", "time": 21171, "x": 0, "y": 0}, {"type": "position", "time": 21221, "x": 0, "y": 0}, {"type": "position", "time": 21271, "x": 0, "y": 0}, {"type": "position", "time": 21322, "x": 0, "y": 0}, {"type": "position", "time": 21372, "x": 0, "y": 0}, {"type": "position", "time": 21422, "x": 0, "y": 0}, {"type": "position", "time": 21471, "x": 0, "y": 0}, {"type": "position", "time": 21521, "x": 0, "y": 0}, {"type": "position", "time": 21572, "x": 0, "y": 0}, {"type": "position", "time": 21622, "x": 0, "y": 0}, {"type": "position", "time": 21672, "x": 0, "y": 0}, {"type": "position", "time": 21722, "x": 0, "y": 0}, {"type": "position", "time": 21772, "x": 0, "y": 0}, {"type": "position", "time": 21821, "x": 0, "y": 0}, {"type": "position", "time": 21872, "x": 0, "y": 0}, {"type": "position", "time": 21922, "x": 0, "y": 0}, {"type": "position", "time": 21972, "x": 0, "y": 0}, {"type": "position", "time": 22022, "x": 0, "y": 0}, {"type": "position", "time": 22072, "x": 0, "y": 0}, {"type": "position", "time": 22122, "x": 0, "y": 0}, {"type": "position", "time": 22172, "x": 0, "y": 0}, {"type": "position", "time": 22222, "x": 0, "y": 0}, {"type": "position", "time": 22272, "x": 0, "y": 0}, {"type": "position", "time": 22322, "x": 0, "y": 0}, {"type": "position", "time": 22372, "x": 0, "y": 0}, {"type": "position", "time": 22422, "x": 0, "y": 0}, {"type": "position", "time": 22472, "x": 0, "y": 0}, {"type": "position", "time": 22522, "x": 0, "y": 0}, {"type": "position", "time": 22572, "x": 0, "y": 0}, {"type": "position", "time": 22622, "x": 0, "y": 0}, {"type": "position", "time": 22672, "x": 0, "y": 0}, {"type": "position", "time": 22722, "x": 0, "y": 0}, {"type": "position", "time": 22772, "x": 0, "y": 0}, {"type": "position", "time": 22822, "x": 0, "y": 0}, {"type": "position", "time": 22872, "x": 0, "y": 0}, {"type": "position", "time": 22922, "x": 0, "y": 0}, {"type": "position", "time": 22972, "x": 0, "y": 0}, {"type": "position", "time": 23022, "x": 0, "y": 0}, {"type": "position", "time": 23072, "x": 0, "y": 0}, {"type": "position", "time": 23122, "x": 0, "y": 0}, {"type": "position", "time": 23172, "x": 0, "y": 0}, {"type": "position", "time": 23222, "x": 0, "y": 0}, {"type": "position", "time": 23272, "x": 0, "y": 0}, {"type": "position", "time": 23322, "x": 0, "y": 0}, {"type": "position", "time": 23372, "x": 0, "y": 0}, {"type": "position", "time": 23422, "x": 0, "y": 0}, {"type": "position", "time": 23472, "x": 0, "y": 0}, {"type": "position", "time": 23522, "x": 0, "y": 0}, {"type": "position", "time": 23572, "x": 0, "y": 0}, {"type": "position", "time": 23622, "x": 0, "y": 0}, {"type": "position", "time": 23672, "x": 0, "y": 0}, {"type": "position", "time": 23722, "x": 0, "y": 0}, {"type": "position", "time": 23772, "x": 0, "y": 0}, {"type": "position", "time": 23822, "x": 0, "y": 0}, {"type": "position", "time": 23872, "x": 0, "y": 0}, {"type": "position", "time": 23922, "x": 0, "y": 0}, {"type": "position", "time": 23972, "x": 0, "y": 0}, {"type": "position", "time": 24022, "x": 0, "y": 0}, {"type": "position", "time": 24072, "x": 0, "y": 0}, {"type": "position", "time": 24122, "x": 0, "y": 0}, {"type": "position", "time": 24172, "x": 0, "y": 0}, {"type": "position", "time": 24222, "x": 0, "y": 0}, {"type": "position", "time": 24272, "x": 0, "y": 0}, {"type": "position", "time": 24322, "x": 0, "y": 0}, {"type": "position", "time": 24372, "x": 0, "y": 0}, {"type": "position", "time": 24422, "x": 0, "y": 0}, {"type": "position", "time": 24472, "x": 0, "y": 0}, {"type": "position", "time": 24522, "x": 0, "y": 0}, {"type": "position", "time": 24573, "x": 0.8170236139562924, "y": 0.09659157315797455}, {"type": "position", "time": 24622, "x": 0.36228875848214803, "y": 0.021649835362994297}, {"type": "position", "time": 24672, "x": 0.297326636271556, "y": 0.0016653719509995613}, {"type": "position", "time": 24722, "x": 0.297326636271556, "y": 0.0016653719509995613}, {"type": "position", "time": 24772, "x": 0.297326636271556, "y": 0.0016653719509995613}, {"type": "position", "time": 24822, "x": 0.297326636271556, "y": 0.0016653719509995613}, {"type": "position", "time": 24872, "x": 0.297326636271556, "y": 0.0016653719509995613}, {"type": "position", "time": 24922, "x": 0.297326636271556, "y": 0.0016653719509995613}, {"type": "position", "time": 24972, "x": 0.297326636271556, "y": 0.0016653719509995613}, {"type": "position", "time": 25022, "x": 0.297326636271556, "y": 0.0016653719509995613}, {"type": "position", "time": 25072, "x": 0.297326636271556, "y": 0.0016653719509995613}, {"type": "position", "time": 25122, "x": 0.297326636271556, "y": 0.0016653719509995613}, {"type": "position", "time": 25172, "x": 0.297326636271556, "y": 0.0016653719509995613}, {"type": "position", "time": 25222, "x": 0.297326636271556, "y": 0.0016653719509995613}, {"type": "position", "time": 25272, "x": 0.297326636271556, "y": 0.0016653719509995613}, {"type": "position", "time": 25322, "x": 0.297326636271556, "y": 0.0016653719509995613}, {"type": "position", "time": 25372, "x": 0.297326636271556, "y": 0.0016653719509995613}, {"type": "position", "time": 25422, "x": 0.297326636271556, "y": 0.0016653719509995613}, {"type": "position", "time": 25472, "x": 0.297326636271556, "y": 0.0016653719509995613}, {"type": "position", "time": 25522, "x": 0.297326636271556, "y": 0.0016653719509995613}, {"type": "position", "time": 25572, "x": 0.297326636271556, "y": 0.0016653719509995613}, {"type": "position", "time": 25622, "x": 0.297326636271556, "y": 0.0016653719509995613}, {"type": "position", "time": 25672, "x": 0.297326636271556, "y": 0.0016653719509995613}, {"type": "position", "time": 25722, "x": 0.297326636271556, "y": 0.0016653719509995613}, {"type": "position", "time": 25772, "x": 0.297326636271556, "y": 0.0016653719509995613}, {"type": "position", "time": 25822, "x": 0.297326636271556, "y": 0.0016653719509995613}, {"type": "position", "time": 25872, "x": 0.297326636271556, "y": 0.0016653719509995613}, {"type": "position", "time": 25922, "x": 0.297326636271556, "y": 0.0016653719509995613}, {"type": "position", "time": 25972, "x": 0.297326636271556, "y": 0.0016653719509995613}, {"type": "position", "time": 26022, "x": 0.297326636271556, "y": 0.0016653719509995613}, {"type": "position", "time": 26072, "x": 0.297326636271556, "y": 0.0016653719509995613}, {"type": "position", "time": 26122, "x": 0.297326636271556, "y": 0.0016653719509995613}, {"type": "position", "time": 26172, "x": 0.297326636271556, "y": 0.0016653719509995613}, {"type": "position", "time": 26222, "x": 0.297326636271556, "y": 0.0016653719509995613}, {"type": "position", "time": 26272, "x": 0.297326636271556, "y": 0.0016653719509995613}, {"type": "position", "time": 26322, "x": 0.297326636271556, "y": 0.0016653719509995613}, {"type": "position", "time": 26372, "x": 0.297326636271556, "y": 0.0016653719509995613}, {"type": "position", "time": 26422, "x": 0.297326636271556, "y": 0.0016653719509995613}, {"type": "position", "time": 26472, "x": 0.297326636271556, "y": 0.0016653719509995613}, {"type": "position", "time": 26522, "x": 0.297326636271556, "y": 0.0016653719509995613}, {"type": "position", "time": 26572, "x": 0.297326636271556, "y": 0.0016653719509995613}, {"type": "position", "time": 26622, "x": 0.297326636271556, "y": 0.0016653719509995613}, {"type": "position", "time": 26672, "x": 0.297326636271556, "y": 0.0016653719509995613}, {"type": "position", "time": 26722, "x": 0.297326636271556, "y": 0.0016653719509995613}, {"type": "position", "time": 26772, "x": 0.297326636271556, "y": 0.0016653719509995613}, {"type": "position", "time": 26822, "x": 0.297326636271556, "y": 0.0016653719509995613}, {"type": "position", "time": 26872, "x": 0.297326636271556, "y": 0.0016653719509995613}, {"type": "position", "time": 26922, "x": 0.297326636271556, "y": 0.0016653719509995613}, {"type": "position", "time": 26972, "x": 0.297326636271556, "y": 0.0016653719509995613}, {"type": "position", "time": 27022, "x": 0.297326636271556, "y": 0.0016653719509995613}, {"type": "position", "time": 27072, "x": 0.297326636271556, "y": 0.0016653719509995613}, {"type": "position", "time": 27122, "x": 0.297326636271556, "y": 0.0016653719509995613}, {"type": "position", "time": 27172, "x": 0.297326636271556, "y": 0.0016653719509995613}, {"type": "position", "time": 27222, "x": 0.297326636271556, "y": 0.0016653719509995613}, {"type": "position", "time": 27272, "x": 0.297326636271556, "y": 0.0016653719509995613}, {"type": "position", "time": 27322, "x": 0.297326636271556, "y": 0.0016653719509995613}, {"type": "position", "time": 27372, "x": 0.297326636271556, "y": 0.0016653719509995613}, {"type": "position", "time": 27422, "x": 0.297326636271556, "y": 0.0016653719509995613}, {"type": "position", "time": 27472, "x": 0.297326636271556, "y": 0.0016653719509995613}, {"type": "position", "time": 27522, "x": 0.297326636271556, "y": 0.0016653719509995613}, {"type": "position", "time": 27572, "x": 0.297326636271556, "y": 0.0016653719509995613}, {"type": "position", "time": 27622, "x": 0.297326636271556, "y": 0.0016653719509995613}, {"type": "position", "time": 27672, "x": 0.297326636271556, "y": 0.0016653719509995613}, {"type": "position", "time": 27722, "x": 0.297326636271556, "y": 0.0016653719509995613}, {"type": "position", "time": 27772, "x": 0.297326636271556, "y": 0.0016653719509995613}, {"type": "position", "time": 27822, "x": 0.297326636271556, "y": 0.0016653719509995613}, {"type": "position", "time": 27872, "x": 0.297326636271556, "y": 0.0016653719509995613}, {"type": "position", "time": 27922, "x": 0.297326636271556, "y": 0.0016653719509995613}, {"type": "position", "time": 27972, "x": 0.297326636271556, "y": 0.0016653719509995613}, {"type": "position", "time": 28022, "x": 0.297326636271556, "y": 0.0016653719509995613}, {"type": "position", "time": 28072, "x": 0.297326636271556, "y": 0.0016653719509995613}, {"type": "position", "time": 28122, "x": 0.297326636271556, "y": 0.0016653719509995613}, {"type": "position", "time": 28172, "x": 0.297326636271556, "y": 0.0016653719509995613}, {"type": "position", "time": 28222, "x": 0.297326636271556, "y": 0.0016653719509995613}, {"type": "position", "time": 28272, "x": 0.297326636271556, "y": 0.0016653719509995613}, {"type": "position", "time": 28322, "x": 0.297326636271556, "y": 0.0016653719509995613}, {"type": "position", "time": 28372, "x": 0.297326636271556, "y": 0.0016653719509995613}, {"type": "position", "time": 28422, "x": 0.297326636271556, "y": 0.0016653719509995613}, {"type": "position", "time": 28472, "x": 0.297326636271556, "y": 0.0016653719509995613}, {"type": "position", "time": 28522, "x": 0.297326636271556, "y": 0.0016653719509995613}, {"type": "position", "time": 28572, "x": 0.297326636271556, "y": 0.0016653719509995613}, {"type": "position", "time": 28622, "x": 0.297326636271556, "y": 0.0016653719509995613}, {"type": "position", "time": 28672, "x": 0.297326636271556, "y": 0.0016653719509995613}, {"type": "position", "time": 28723, "x": 0.297326636271556, "y": 0.0016653719509995613}, {"type": "position", "time": 28772, "x": 0.297326636271556, "y": 0.0016653719509995613}, {"type": "position", "time": 28822, "x": 0.297326636271556, "y": 0.0016653719509995613}, {"type": "position", "time": 28872, "x": 0.297326636271556, "y": 0.0016653719509995613}, {"type": "position", "time": 28922, "x": 0.13741987390702168, "y": 0.08993008535397631}, {"type": "position", "time": 28972, "x": 0.90572189620537, "y": 0.18319091460995174}, {"type": "position", "time": 29022, "x": 0.90572189620537, "y": 0.18319091460995174}, {"type": "position", "time": 29072, "x": 0.90572189620537, "y": 0.18319091460995174}, {"type": "position", "time": 29122, "x": 0.90572189620537, "y": 0.18319091460995174}, {"type": "position", "time": 29172, "x": 0.90572189620537, "y": 0.18319091460995174}, {"type": "position", "time": 29222, "x": 0.90572189620537, "y": 0.18319091460995174}, {"type": "position", "time": 29272, "x": 0.90572189620537, "y": 0.18319091460995174}, {"type": "position", "time": 29322, "x": 0.90572189620537, "y": 0.18319091460995174}, {"type": "position", "time": 29372, "x": 0.90572189620537, "y": 0.18319091460995174}, {"type": "position", "time": 29422, "x": 0.90572189620537, "y": 0.18319091460995174}, {"type": "position", "time": 29472, "x": 0.90572189620537, "y": 0.18319091460995174}, {"type": "position", "time": 29522, "x": 0.90572189620537, "y": 0.18319091460995174}, {"type": "position", "time": 29572, "x": 0.90572189620537, "y": 0.18319091460995174}, {"type": "position", "time": 29622, "x": 0.90572189620537, "y": 0.18319091460995174}, {"type": "position", "time": 29672, "x": 0.90572189620537, "y": 0.18319091460995174}, {"type": "position", "time": 29722, "x": 0.90572189620537, "y": 0.18319091460995174}, {"type": "position", "time": 29772, "x": 0.90572189620537, "y": 0.18319091460995174}, {"type": "position", "time": 29822, "x": 0.90572189620537, "y": 0.18319091460995174}, {"type": "position", "time": 29872, "x": 0.90572189620537, "y": 0.18319091460995174}, {"type": "position", "time": 29922, "x": 0.90572189620537, "y": 0.18319091460995174}, {"type": "position", "time": 29972, "x": 0.90572189620537, "y": 0.18319091460995174}, {"type": "position", "time": 30022, "x": 0.90572189620537, "y": 0.18319091460995174}, {"type": "position", "time": 30072, "x": 0.90572189620537, "y": 0.18319091460995174}, {"type": "position", "time": 30122, "x": 0.90572189620537, "y": 0.18319091460995174}, {"type": "position", "time": 30172, "x": 0.90572189620537, "y": 0.18319091460995174}, {"type": "position", "time": 30222, "x": 0.90572189620537, "y": 0.18319091460995174}, {"type": "position", "time": 30272, "x": 0.90572189620537, "y": 0.18319091460995174}, {"type": "position", "time": 30322, "x": 0.90572189620537, "y": 0.18319091460995174}, {"type": "position", "time": 30372, "x": 0.90572189620537, "y": 0.18319091460995174}, {"type": "position", "time": 30422, "x": 0.90572189620537, "y": 0.18319091460995174}, {"type": "position", "time": 30472, "x": 0.90572189620537, "y": 0.18319091460995174}, {"type": "position", "time": 30522, "x": 0.90572189620537, "y": 0.18319091460995174}, {"type": "position", "time": 30572, "x": 0.90572189620537, "y": 0.18319091460995174}, {"type": "position", "time": 30622, "x": 0.90572189620537, "y": 0.18319091460995174}, {"type": "position", "time": 30672, "x": 0.90572189620537, "y": 0.18319091460995174}, {"type": "position", "time": 30722, "x": 0.90572189620537, "y": 0.18319091460995174}, {"type": "position", "time": 30772, "x": 0.90572189620537, "y": 0.18319091460995174}, {"type": "position", "time": 30822, "x": 0.90572189620537, "y": 0.18319091460995174}, {"type": "position", "time": 30872, "x": 0.90572189620537, "y": 0.18319091460995174}, {"type": "position", "time": 30922, "x": 0.90572189620537, "y": 0.18319091460995174}, {"type": "position", "time": 30972, "x": 0.90572189620537, "y": 0.18319091460995174}, {"type": "position", "time": 31022, "x": 0.90572189620537, "y": 0.18319091460995174}, {"type": "position", "time": 31072, "x": 0.90572189620537, "y": 0.18319091460995174}, {"type": "position", "time": 31122, "x": 0.90572189620537, "y": 0.18319091460995174}, {"type": "position", "time": 31172, "x": 0.90572189620537, "y": 0.18319091460995174}, {"type": "position", "time": 31222, "x": 0.90572189620537, "y": 0.18319091460995174}, {"type": "position", "time": 31272, "x": 0.90572189620537, "y": 0.18319091460995174}, {"type": "position", "time": 31322, "x": 0.90572189620537, "y": 0.18319091460995174}, {"type": "position", "time": 31372, "x": 0.90572189620537, "y": 0.18319091460995174}, {"type": "position", "time": 31422, "x": 0.90572189620537, "y": 0.18319091460995174}, {"type": "position", "time": 31472, "x": 0.90572189620537, "y": 0.18319091460995174}, {"type": "position", "time": 31522, "x": 0.90572189620537, "y": 0.18319091460995174}, {"type": "position", "time": 31572, "x": 0.90572189620537, "y": 0.18319091460995174}, {"type": "position", "time": 31622, "x": 0.90572189620537, "y": 0.18319091460995174}, {"type": "position", "time": 31672, "x": 0.90572189620537, "y": 0.18319091460995174}, {"type": "position", "time": 31722, "x": 0.90572189620537, "y": 0.18319091460995174}, {"type": "position", "time": 31772, "x": 0.90572189620537, "y": 0.18319091460995174}, {"type": "position", "time": 31822, "x": 0.90572189620537, "y": 0.18319091460995174}, {"type": "position", "time": 31872, "x": 0.90572189620537, "y": 0.18319091460995174}, {"type": "position", "time": 31922, "x": 0.90572189620537, "y": 0.18319091460995174}, {"type": "position", "time": 31972, "x": 0.90572189620537, "y": 0.18319091460995174}, {"type": "position", "time": 32022, "x": 0.90572189620537, "y": 0.18319091460995174}, {"type": "position", "time": 32072, "x": 0.90572189620537, "y": 0.18319091460995174}, {"type": "position", "time": 32122, "x": 0.90572189620537, "y": 0.18319091460995174}, {"type": "position", "time": 32172, "x": 0.90572189620537, "y": 0.18319091460995174}, {"type": "position", "time": 32222, "x": 0.90572189620537, "y": 0.18319091460995174}, {"type": "position", "time": 32272, "x": 0.90572189620537, "y": 0.18319091460995174}, {"type": "position", "time": 32322, "x": 0.90572189620537, "y": 0.18319091460995174}, {"type": "position", "time": 32372, "x": 0.90572189620537, "y": 0.18319091460995174}, {"type": "position", "time": 32422, "x": 0.90572189620537, "y": 0.18319091460995174}, {"type": "position", "time": 32472, "x": 0.90572189620537, "y": 0.18319091460995174}, {"type": "position", "time": 32522, "x": 0.90572189620537, "y": 0.18319091460995174}, {"type": "position", "time": 32572, "x": 0.90572189620537, "y": 0.18319091460995174}, {"type": "position", "time": 32623, "x": 0.90572189620537, "y": 0.18319091460995174}, {"type": "position", "time": 32673, "x": 0.90572189620537, "y": 0.18319091460995174}, {"type": "position", "time": 32723, "x": 0.90572189620537, "y": 0.18319091460995174}, {"type": "position", "time": 32773, "x": 0.90572189620537, "y": 0.18319091460995174}, {"type": "position", "time": 32823, "x": 0.90572189620537, "y": 0.18319091460995174}, {"type": "position", "time": 32873, "x": 0.90572189620537, "y": 0.18319091460995174}, {"type": "position", "time": 32923, "x": 0.90572189620537, "y": 0.18319091460995174}, {"type": "position", "time": 32973, "x": 0.90572189620537, "y": 0.18319091460995174}, {"type": "position", "time": 33023, "x": 0.90572189620537, "y": 0.18319091460995174}, {"type": "position", "time": 33073, "x": 0.90572189620537, "y": 0.18319091460995174}, {"type": "position", "time": 33123, "x": 0.90572189620537, "y": 0.18319091460995174}, {"type": "position", "time": 33173, "x": 0.90572189620537, "y": 0.18319091460995174}, {"type": "position", "time": 33223, "x": 0.90572189620537, "y": 0.18319091460995174}, {"type": "position", "time": 33273, "x": 0.90572189620537, "y": 0.18319091460995174}, {"type": "position", "time": 33323, "x": 0.90572189620537, "y": 0.18319091460995174}, {"type": "position", "time": 33373, "x": 0.90572189620537, "y": 0.18319091460995174}, {"type": "position", "time": 33423, "x": 0.90572189620537, "y": 0.18319091460995174}, {"type": "position", "time": 33473, "x": 0.90572189620537, "y": 0.18319091460995174}, {"type": "position", "time": 33523, "x": 0.90572189620537, "y": 0.18319091460995174}, {"type": "position", "time": 33573, "x": 0.90572189620537, "y": 0.18319091460995174}, {"type": "position", "time": 33623, "x": 0.90572189620537, "y": 0.18319091460995174}, {"type": "position", "time": 33673, "x": 0.90572189620537, "y": 0.18319091460995174}, {"type": "position", "time": 33723, "x": 0.90572189620537, "y": 0.18319091460995174}, {"type": "position", "time": 33773, "x": 0.90572189620537, "y": 0.18319091460995174}, {"type": "position", "time": 33823, "x": 0.90572189620537, "y": 0.18319091460995174}, {"type": "position", "time": 33873, "x": 0.90572189620537, "y": 0.18319091460995174}, {"type": "position", "time": 33923, "x": 0.90572189620537, "y": 0.18319091460995174}, {"type": "position", "time": 33973, "x": 0.90572189620537, "y": 0.18319091460995174}, {"type": "position", "time": 34023, "x": 0.90572189620537, "y": 0.18319091460995174}, {"type": "position", "time": 34073, "x": 0.90572189620537, "y": 0.18319091460995174}, {"type": "position", "time": 34123, "x": 0.90572189620537, "y": 0.18319091460995174}, {"type": "position", "time": 34173, "x": 0.90572189620537, "y": 0.18319091460995174}, {"type": "position", "time": 34223, "x": 0.90572189620537, "y": 0.18319091460995174}, {"type": "position", "time": 34273, "x": 0.90572189620537, "y": 0.18319091460995174}, {"type": "position", "time": 34323, "x": 0.90572189620537, "y": 0.18319091460995174}, {"type": "position", "time": 34373, "x": 0.90572189620537, "y": 0.18319091460995174}, {"type": "position", "time": 34423, "x": 0.90572189620537, "y": 0.18319091460995174}, {"type": "position", "time": 34473, "x": 0.90572189620537, "y": 0.18319091460995174}, {"type": "position", "time": 34523, "x": 0.90572189620537, "y": 0.18319091460995174}, {"type": "position", "time": 34573, "x": 0.90572189620537, "y": 0.18319091460995174}, {"type": "position", "time": 34623, "x": 0.90572189620537, "y": 0.18319091460995174}, {"type": "position", "time": 34673, "x": 0.90572189620537, "y": 0.18319091460995174}, {"type": "position", "time": 34723, "x": 0.90572189620537, "y": 0.18319091460995174}, {"type": "position", "time": 34773, "x": 0.90572189620537, "y": 0.18319091460995174}, {"type": "position", "time": 34823, "x": 0.90572189620537, "y": 0.18319091460995174}, {"type": "position", "time": 34873, "x": 0.90572189620537, "y": 0.18319091460995174}, {"type": "position", "time": 34923, "x": 0.90572189620537, "y": 0.18319091460995174}, {"type": "position", "time": 34973, "x": 0.90572189620537, "y": 0.18319091460995174}, {"type": "position", "time": 35023, "x": 0.90572189620537, "y": 0.18319091460995174}, {"type": "position", "time": 35073, "x": 0.90572189620537, "y": 0.18319091460995174}, {"type": "position", "time": 35123, "x": 0.90572189620537, "y": 0.18319091460995174}, {"type": "position", "time": 35173, "x": 0.90572189620537, "y": 0.18319091460995174}, {"type": "position", "time": 35223, "x": 0.90572189620537, "y": 0.18319091460995174}, {"type": "position", "time": 35273, "x": 0.90572189620537, "y": 0.18319091460995174}, {"type": "position", "time": 35323, "x": 0.90572189620537, "y": 0.18319091460995174}, {"type": "position", "time": 35373, "x": 0.90572189620537, "y": 0.18319091460995174}, {"type": "position", "time": 35423, "x": 0.90572189620537, "y": 0.18319091460995174}, {"type": "position", "time": 35473, "x": 0.90572189620537, "y": 0.18319091460995174}, {"type": "position", "time": 35523, "x": 0.90572189620537, "y": 0.18319091460995174}, {"type": "position", "time": 35573, "x": 0.90572189620537, "y": 0.18319091460995174}, {"type": "position", "time": 35623, "x": 0.90572189620537, "y": 0.18319091460995174}, {"type": "position", "time": 35673, "x": 0.90572189620537, "y": 0.18319091460995174}, {"type": "position", "time": 35723, "x": 0.90572189620537, "y": 0.18319091460995174}, {"type": "position", "time": 35773, "x": 0.90572189620537, "y": 0.18319091460995174}, {"type": "position", "time": 35823, "x": 0.90572189620537, "y": 0.18319091460995174}, {"type": "position", "time": 35873, "x": 0.90572189620537, "y": 0.18319091460995174}, {"type": "position", "time": 35923, "x": 0.90572189620537, "y": 0.18319091460995174}, {"type": "position", "time": 35973, "x": 0.90572189620537, "y": 0.18319091460995174}, {"type": "position", "time": 36023, "x": 0.90572189620537, "y": 0.18319091460995174}, {"type": "position", "time": 36073, "x": 0.90572189620537, "y": 0.18319091460995174}, {"type": "position", "time": 36123, "x": 0.90572189620537, "y": 0.18319091460995174}, {"type": "position", "time": 36173, "x": 0.90572189620537, "y": 0.18319091460995174}, {"type": "position", "time": 36223, "x": 0.90572189620537, "y": 0.18319091460995174}, {"type": "position", "time": 36273, "x": 0.90572189620537, "y": 0.18319091460995174}, {"type": "position", "time": 36323, "x": 0.90572189620537, "y": 0.18319091460995174}, {"type": "position", "time": 36373, "x": 0.90572189620537, "y": 0.18319091460995174}, {"type": "position", "time": 36423, "x": 0.90572189620537, "y": 0.18319091460995174}, {"type": "position", "time": 36473, "x": 0.90572189620537, "y": 0.18319091460995174}, {"type": "position", "time": 36523, "x": 0.90572189620537, "y": 0.18319091460995174}, {"type": "position", "time": 36573, "x": 0.90572189620537, "y": 0.18319091460995174}, {"type": "position", "time": 36623, "x": 0.90572189620537, "y": 0.18319091460995174}, {"type": "position", "time": 36673, "x": 0.90572189620537, "y": 0.18319091460995174}, {"type": "position", "time": 36723, "x": 0.90572189620537, "y": 0.18319091460995174}, {"type": "position", "time": 36773, "x": 0.90572189620537, "y": 0.18319091460995174}, {"type": "position", "time": 36823, "x": 0.90572189620537, "y": 0.18319091460995174}, {"type": "position", "time": 36873, "x": 0.90572189620537, "y": 0.18319091460995174}, {"type": "position", "time": 36923, "x": 0.90572189620537, "y": 0.18319091460995174}, {"type": "position", "time": 36973, "x": 0.90572189620537, "y": 0.18319091460995174}, {"type": "position", "time": 37023, "x": 0.90572189620537, "y": 0.18319091460995174}, {"type": "position", "time": 37073, "x": 0.90572189620537, "y": 0.18319091460995174}, {"type": "position", "time": 37123, "x": 0.90572189620537, "y": 0.18319091460995174}, {"type": "position", "time": 37173, "x": 0.90572189620537, "y": 0.18319091460995174}, {"type": "position", "time": 37223, "x": 0.90572189620537, "y": 0.18319091460995174}, {"type": "position", "time": 37273, "x": 0.90572189620537, "y": 0.18319091460995174}, {"type": "position", "time": 37323, "x": 0.90572189620537, "y": 0.18319091460995174}, {"type": "position", "time": 37373, "x": 0.90572189620537, "y": 0.18319091460995174}, {"type": "position", "time": 37423, "x": 0.90572189620537, "y": 0.18319091460995174}, {"type": "position", "time": 37473, "x": 0.90572189620537, "y": 0.18319091460995174}, {"type": "position", "time": 37523, "x": 0.90572189620537, "y": 0.18319091460995174}, {"type": "position", "time": 37573, "x": 0.90572189620537, "y": 0.18319091460995174}, {"type": "position", "time": 37623, "x": 0.90572189620537, "y": 0.18319091460995174}, {"type": "position", "time": 37673, "x": 0.90572189620537, "y": 0.18319091460995174}, {"type": "position", "time": 37723, "x": 0.90572189620537, "y": 0.18319091460995174}, {"type": "position", "time": 37773, "x": 0.90572189620537, "y": 0.18319091460995174}, {"type": "position", "time": 37823, "x": 0.90572189620537, "y": 0.18319091460995174}, {"type": "position", "time": 37873, "x": 0.90572189620537, "y": 0.18319091460995174}, {"type": "position", "time": 37923, "x": 0.90572189620537, "y": 0.18319091460995174}, {"type": "position", "time": 37973, "x": 0.90572189620537, "y": 0.18319091460995174}, {"type": "position", "time": 38023, "x": 0.90572189620537, "y": 0.18319091460995174}, {"type": "position", "time": 38073, "x": 0.90572189620537, "y": 0.18319091460995174}, {"type": "position", "time": 38123, "x": 0.90572189620537, "y": 0.18319091460995174}, {"type": "position", "time": 38173, "x": 0.90572189620537, "y": 0.18319091460995174}, {"type": "position", "time": 38223, "x": 0.90572189620537, "y": 0.18319091460995174}, {"type": "position", "time": 38273, "x": 0.90572189620537, "y": 0.18319091460995174}, {"type": "position", "time": 38323, "x": 0.90572189620537, "y": 0.18319091460995174}, {"type": "position", "time": 38373, "x": 0.90572189620537, "y": 0.18319091460995174}, {"type": "position", "time": 38423, "x": 0.90572189620537, "y": 0.18319091460995174}, {"type": "position", "time": 38473, "x": 0.90572189620537, "y": 0.18319091460995174}, {"type": "position", "time": 38523, "x": 0.90572189620537, "y": 0.18319091460995174}, {"type": "position", "time": 38573, "x": 0.90572189620537, "y": 0.18319091460995174}, {"type": "position", "time": 38623, "x": 0.90572189620537, "y": 0.18319091460995174}, {"type": "position", "time": 38673, "x": 0.90572189620537, "y": 0.18319091460995174}, {"type": "position", "time": 38723, "x": 0.90572189620537, "y": 0.18319091460995174}, {"type": "position", "time": 38773, "x": 0.90572189620537, "y": 0.18319091460995174}, {"type": "position", "time": 38823, "x": 0.90572189620537, "y": 0.18319091460995174}, {"type": "position", "time": 38873, "x": 0.90572189620537, "y": 0.18319091460995174}, {"type": "position", "time": 38923, "x": 0.90572189620537, "y": 0.18319091460995174}, {"type": "position", "time": 38973, "x": 0.90572189620537, "y": 0.18319091460995174}, {"type": "position", "time": 39023, "x": 0.90572189620537, "y": 0.18319091460995174}, {"type": "position", "time": 39073, "x": 0.90572189620537, "y": 0.18319091460995174}, {"type": "position", "time": 39123, "x": 0.90572189620537, "y": 0.18319091460995174}, {"type": "position", "time": 39173, "x": 0.90572189620537, "y": 0.18319091460995174}, {"type": "position", "time": 39223, "x": 0.90572189620537, "y": 0.18319091460995174}, {"type": "position", "time": 39273, "x": 0.90572189620537, "y": 0.18319091460995174}, {"type": "position", "time": 39323, "x": 0.90572189620537, "y": 0.18319091460995174}, {"type": "position", "time": 39373, "x": 0.90572189620537, "y": 0.18319091460995174}, {"type": "position", "time": 39423, "x": 0.90572189620537, "y": 0.18319091460995174}, {"type": "position", "time": 39473, "x": 0.90572189620537, "y": 0.18319091460995174}, {"type": "position", "time": 39523, "x": 0.90572189620537, "y": 0.18319091460995174}, {"type": "position", "time": 39573, "x": 0.90572189620537, "y": 0.18319091460995174}, {"type": "position", "time": 39623, "x": 0.90572189620537, "y": 0.18319091460995174}, {"type": "position", "time": 39673, "x": 0.90572189620537, "y": 0.18319091460995174}, {"type": "position", "time": 39723, "x": 0.90572189620537, "y": 0.18319091460995174}, {"type": "position", "time": 39773, "x": 0.90572189620537, "y": 0.18319091460995174}, {"type": "position", "time": 39823, "x": 0.90572189620537, "y": 0.18319091460995174}, {"type": "position", "time": 39873, "x": 0.90572189620537, "y": 0.18319091460995174}, {"type": "position", "time": 39923, "x": 0.90572189620537, "y": 0.18319091460995174}, {"type": "position", "time": 39973, "x": 0.90572189620537, "y": 0.18319091460995174}, {"type": "position", "time": 40023, "x": 0.90572189620537, "y": 0.18319091460995174}, {"type": "position", "time": 40073, "x": 0.90572189620537, "y": 0.18319091460995174}, {"type": "position", "time": 40123, "x": 0.90572189620537, "y": 0.18319091460995174}, {"type": "position", "time": 40173, "x": 0.90572189620537, "y": 0.18319091460995174}, {"type": "position", "time": 40223, "x": 0.90572189620537, "y": 0.18319091460995174}, {"type": "position", "time": 40273, "x": 0.90572189620537, "y": 0.18319091460995174}, {"type": "position", "time": 40323, "x": 0.90572189620537, "y": 0.18319091460995174}, {"type": "position", "time": 40373, "x": 0.90572189620537, "y": 0.18319091460995174}, {"type": "position", "time": 40423, "x": 0.90572189620537, "y": 0.18319091460995174}, {"type": "position", "time": 40473, "x": 0.90572189620537, "y": 0.18319091460995174}, {"type": "position", "time": 40523, "x": 0.90572189620537, "y": 0.18319091460995174}, {"type": "position", "time": 40573, "x": 0.90572189620537, "y": 0.18319091460995174}, {"type": "position", "time": 40623, "x": 0.90572189620537, "y": 0.18319091460995174}, {"type": "position", "time": 40673, "x": 0.90572189620537, "y": 0.18319091460995174}, {"type": "position", "time": 40723, "x": 0.90572189620537, "y": 0.18319091460995174}, {"type": "position", "time": 40773, "x": 0.90572189620537, "y": 0.18319091460995174}, {"type": "position", "time": 40823, "x": 0.90572189620537, "y": 0.18319091460995174}, {"type": "position", "time": 40873, "x": 0.90572189620537, "y": 0.18319091460995174}, {"type": "position", "time": 40923, "x": 0.90572189620537, "y": 0.18319091460995174}, {"type": "position", "time": 40973, "x": 0.90572189620537, "y": 0.18319091460995174}, {"type": "position", "time": 41023, "x": 0.90572189620537, "y": 0.18319091460995174}, {"type": "position", "time": 41073, "x": 0.90572189620537, "y": 0.18319091460995174}, {"type": "position", "time": 41123, "x": 0.90572189620537, "y": 0.18319091460995174}, {"type": "position", "time": 41173, "x": 0.90572189620537, "y": 0.18319091460995174}, {"type": "position", "time": 41223, "x": 0.90572189620537, "y": 0.18319091460995174}, {"type": "position", "time": 41273, "x": 0.90572189620537, "y": 0.18319091460995174}, {"type": "position", "time": 41323, "x": 0.90572189620537, "y": 0.18319091460995174}, {"type": "position", "time": 41373, "x": 0.90572189620537, "y": 0.18319091460995174}, {"type": "position", "time": 41424, "x": 0.90572189620537, "y": 0.18319091460995174}, {"type": "position", "time": 41473, "x": 0.90572189620537, "y": 0.18319091460995174}, {"type": "position", "time": 41523, "x": 0.90572189620537, "y": 0.18319091460995174}, {"type": "position", "time": 41573, "x": 0.90572189620537, "y": 0.18319091460995174}, {"type": "position", "time": 41623, "x": 0.90572189620537, "y": 0.18319091460995174}, {"type": "position", "time": 41673, "x": 0.90572189620537, "y": 0.18319091460995174}, {"type": "position", "time": 41723, "x": 0.90572189620537, "y": 0.18319091460995174}, {"type": "position", "time": 41773, "x": 0.90572189620537, "y": 0.18319091460995174}, {"type": "position", "time": 41823, "x": 0.90572189620537, "y": 0.18319091460995174}, {"type": "position", "time": 41874, "x": 0.90572189620537, "y": 0.18319091460995174}, {"type": "position", "time": 41923, "x": 0.90572189620537, "y": 0.18319091460995174}, {"type": "position", "time": 41973, "x": 0.90572189620537, "y": 0.18319091460995174}, {"type": "position", "time": 42023, "x": 0.90572189620537, "y": 0.18319091460995174}, {"type": "position", "time": 42073, "x": 0.90572189620537, "y": 0.18319091460995174}, {"type": "position", "time": 42123, "x": 0.90572189620537, "y": 0.18319091460995174}, {"type": "position", "time": 42173, "x": 0.90572189620537, "y": 0.18319091460995174}, {"type": "position", "time": 42223, "x": 0.90572189620537, "y": 0.18319091460995174}, {"type": "position", "time": 42273, "x": 0.90572189620537, "y": 0.18319091460995174}, {"type": "position", "time": 42323, "x": 0.90572189620537, "y": 0.18319091460995174}, {"type": "position", "time": 42373, "x": 0.90572189620537, "y": 0.18319091460995174}, {"type": "position", "time": 42423, "x": 0.90572189620537, "y": 0.18319091460995174}, {"type": "position", "time": 42473, "x": 0.90572189620537, "y": 0.18319091460995174}, {"type": "position", "time": 42523, "x": 0.90572189620537, "y": 0.18319091460995174}, {"type": "position", "time": 42573, "x": 0.90572189620537, "y": 0.18319091460995174}, {"type": "position", "time": 42623, "x": 0.90572189620537, "y": 0.18319091460995174}, {"type": "position", "time": 42673, "x": 0.90572189620537, "y": 0.18319091460995174}, {"type": "position", "time": 42723, "x": 0.90572189620537, "y": 0.18319091460995174}, {"type": "position", "time": 42774, "x": 0.90572189620537, "y": 0.18319091460995174}, {"type": "position", "time": 42823, "x": 0.90572189620537, "y": 0.18319091460995174}, {"type": "position", "time": 42873, "x": 0.90572189620537, "y": 0.18319091460995174}, {"type": "position", "time": 42924, "x": 0.90572189620537, "y": 0.18319091460995174}, {"type": "position", "time": 42973, "x": 0.90572189620537, "y": 0.18319091460995174}, {"type": "position", "time": 43023, "x": 0.90572189620537, "y": 0.18319091460995174}, {"type": "position", "time": 43073, "x": 0.90572189620537, "y": 0.18319091460995174}, {"type": "position", "time": 43123, "x": 0.90572189620537, "y": 0.18319091460995174}, {"type": "position", "time": 43173, "x": 0.90572189620537, "y": 0.18319091460995174}, {"type": "position", "time": 43223, "x": 0.90572189620537, "y": 0.18319091460995174}, {"type": "position", "time": 43273, "x": 0.90572189620537, "y": 0.18319091460995174}, {"type": "position", "time": 43323, "x": 0.90572189620537, "y": 0.18319091460995174}, {"type": "position", "time": 43373, "x": 0.90572189620537, "y": 0.18319091460995174}, {"type": "position", "time": 43423, "x": 0.90572189620537, "y": 0.18319091460995174}, {"type": "position", "time": 43473, "x": 0.90572189620537, "y": 0.18319091460995174}, {"type": "position", "time": 43523, "x": 0.90572189620537, "y": 0.18319091460995174}, {"type": "position", "time": 43573, "x": 0.90572189620537, "y": 0.18319091460995174}, {"type": "position", "time": 43623, "x": 0.90572189620537, "y": 0.18319091460995174}, {"type": "position", "time": 43673, "x": 0.90572189620537, "y": 0.18319091460995174}, {"type": "position", "time": 43723, "x": 0.90572189620537, "y": 0.18319091460995174}, {"type": "position", "time": 43774, "x": 0.90572189620537, "y": 0.18319091460995174}, {"type": "position", "time": 43824, "x": 0.90572189620537, "y": 0.18319091460995174}, {"type": "position", "time": 43873, "x": 0.90572189620537, "y": 0.18319091460995174}, {"type": "position", "time": 43923, "x": 0.90572189620537, "y": 0.18319091460995174}, {"type": "position", "time": 43973, "x": 0.90572189620537, "y": 0.18319091460995174}, {"type": "position", "time": 44023, "x": 0.90572189620537, "y": 0.18319091460995174}, {"type": "position", "time": 44073, "x": 0.90572189620537, "y": 0.18319091460995174}, {"type": "position", "time": 44123, "x": 0.90572189620537, "y": 0.18319091460995174}, {"type": "position", "time": 44173, "x": 0.90572189620537, "y": 0.18319091460995174}, {"type": "position", "time": 44223, "x": 0.90572189620537, "y": 0.18319091460995174}, {"type": "position", "time": 44274, "x": 0.90572189620537, "y": 0.18319091460995174}, {"type": "position", "time": 44323, "x": 0.90572189620537, "y": 0.18319091460995174}, {"type": "position", "time": 44373, "x": 0.90572189620537, "y": 0.18319091460995174}, {"type": "position", "time": 44423, "x": 0.90572189620537, "y": 0.18319091460995174}, {"type": "position", "time": 44473, "x": 0.90572189620537, "y": 0.18319091460995174}, {"type": "position", "time": 44523, "x": 0.90572189620537, "y": 0.18319091460995174}, {"type": "position", "time": 44573, "x": 0.90572189620537, "y": 0.18319091460995174}, {"type": "position", "time": 44623, "x": 0.90572189620537, "y": 0.18319091460995174}, {"type": "position", "time": 44674, "x": 0.90572189620537, "y": 0.18319091460995174}, {"type": "position", "time": 44724, "x": 0.90572189620537, "y": 0.18319091460995174}, {"type": "position", "time": 44774, "x": 0.90572189620537, "y": 0.18319091460995174}, {"type": "position", "time": 44824, "x": 0.90572189620537, "y": 0.18319091460995174}, {"type": "position", "time": 44874, "x": 0.90572189620537, "y": 0.18319091460995174}, {"type": "position", "time": 44924, "x": 0.90572189620537, "y": 0.18319091460995174}, {"type": "position", "time": 44974, "x": 0.90572189620537, "y": 0.18319091460995174}, {"type": "position", "time": 45023, "x": 0.90572189620537, "y": 0.18319091460995174}, {"type": "position", "time": 45073, "x": 0.90572189620537, "y": 0.18319091460995174}, {"type": "position", "time": 45123, "x": 0.90572189620537, "y": 0.18319091460995174}, {"type": "position", "time": 45173, "x": 0.90572189620537, "y": 0.18319091460995174}, {"type": "position", "time": 45223, "x": 0.90572189620537, "y": 0.18319091460995174}, {"type": "position", "time": 45274, "x": 0.90572189620537, "y": 0.18319091460995174}, {"type": "position", "time": 45324, "x": 0.90572189620537, "y": 0.18319091460995174}, {"type": "position", "time": 45374, "x": 0.90572189620537, "y": 0.18319091460995174}, {"type": "position", "time": 45424, "x": 0.90572189620537, "y": 0.18319091460995174}, {"type": "position", "time": 45474, "x": 0.90572189620537, "y": 0.18319091460995174}, {"type": "position", "time": 45524, "x": 0.90572189620537, "y": 0.18319091460995174}, {"type": "position", "time": 45574, "x": 0.90572189620537, "y": 0.18319091460995174}, {"type": "position", "time": 45624, "x": 0.90572189620537, "y": 0.18319091460995174}, {"type": "position", "time": 45674, "x": 0.90572189620537, "y": 0.18319091460995174}, {"type": "position", "time": 45724, "x": 0.90572189620537, "y": 0.18319091460995174}, {"type": "position", "time": 45774, "x": 0.90572189620537, "y": 0.18319091460995174}, {"type": "position", "time": 45824, "x": 0.90572189620537, "y": 0.18319091460995174}, {"type": "position", "time": 45874, "x": 0.90572189620537, "y": 0.18319091460995174}, {"type": "position", "time": 45924, "x": 0.90572189620537, "y": 0.18319091460995174}, {"type": "position", "time": 45974, "x": 0.90572189620537, "y": 0.18319091460995174}, {"type": "position", "time": 46023, "x": 0.90572189620537, "y": 0.18319091460995174}, {"type": "position", "time": 46074, "x": 0.90572189620537, "y": 0.18319091460995174}, {"type": "position", "time": 46124, "x": 0.90572189620537, "y": 0.18319091460995174}, {"type": "position", "time": 46173, "x": 0.90572189620537, "y": 0.18319091460995174}, {"type": "position", "time": 46224, "x": 0.90572189620537, "y": 0.18319091460995174}, {"type": "position", "time": 46274, "x": 0.90572189620537, "y": 0.18319091460995174}, {"type": "position", "time": 46324, "x": 0.90572189620537, "y": 0.18319091460995174}, {"type": "position", "time": 46374, "x": 0.90572189620537, "y": 0.18319091460995174}, {"type": "position", "time": 46424, "x": 0.90572189620537, "y": 0.18319091460995174}, {"type": "position", "time": 46474, "x": 0.90572189620537, "y": 0.18319091460995174}, {"type": "position", "time": 46524, "x": 0.90572189620537, "y": 0.18319091460995174}, {"type": "position", "time": 46574, "x": 0.90572189620537, "y": 0.18319091460995174}, {"type": "position", "time": 46624, "x": 0.90572189620537, "y": 0.18319091460995174}, {"type": "position", "time": 46674, "x": 0.90572189620537, "y": 0.18319091460995174}, {"type": "position", "time": 46724, "x": 0.90572189620537, "y": 0.18319091460995174}, {"type": "position", "time": 46774, "x": 0.90572189620537, "y": 0.18319091460995174}, {"type": "position", "time": 46829, "x": 0.90572189620537, "y": 0.18319091460995174}, {"type": "position", "time": 46874, "x": 0.90572189620537, "y": 0.18319091460995174}, {"type": "position", "time": 46924, "x": 0.90572189620537, "y": 0.18319091460995174}, {"type": "position", "time": 46974, "x": 0.90572189620537, "y": 0.18319091460995174}, {"type": "position", "time": 47024, "x": 0.90572189620537, "y": 0.18319091460995174}, {"type": "position", "time": 47074, "x": 0.90572189620537, "y": 0.18319091460995174}, {"type": "position", "time": 47124, "x": 0.90572189620537, "y": 0.18319091460995174}, {"type": "position", "time": 47174, "x": 0.90572189620537, "y": 0.18319091460995174}, {"type": "position", "time": 47224, "x": 0.90572189620537, "y": 0.18319091460995174}, {"type": "position", "time": 47274, "x": 0.90572189620537, "y": 0.18319091460995174}, {"type": "position", "time": 47324, "x": 0.90572189620537, "y": 0.18319091460995174}, {"type": "position", "time": 47374, "x": 0.90572189620537, "y": 0.18319091460995174}, {"type": "position", "time": 47424, "x": 0.90572189620537, "y": 0.18319091460995174}, {"type": "position", "time": 47474, "x": 0.90572189620537, "y": 0.18319091460995174}, {"type": "position", "time": 47524, "x": 0.90572189620537, "y": 0.18319091460995174}, {"type": "position", "time": 47574, "x": 0.90572189620537, "y": 0.18319091460995174}, {"type": "position", "time": 47624, "x": 0.90572189620537, "y": 0.18319091460995174}, {"type": "position", "time": 47674, "x": 0.90572189620537, "y": 0.18319091460995174}, {"type": "position", "time": 47724, "x": 0.90572189620537, "y": 0.18319091460995174}, {"type": "position", "time": 47774, "x": 0.8944784519766138, "y": 0.4163429877498903}, {"type": "position", "time": 47824, "x": 0.8632466624522906, "y": 0.3963585243378956}, {"type": "position", "time": 47874, "x": 0.8132757992133737, "y": 0.33473976215091183}, {"type": "position", "time": 47924, "x": 0.677105196887325, "y": 0.2797824877679263}, {"type": "position", "time": 47974, "x": 0.5496794956280867, "y": 0.30642843898391925}, {"type": "position", "time": 48024, "x": 0.5371867798183574, "y": 0.3180860426409162}, {"type": "position", "time": 48074, "x": 0.5371867798183574, "y": 0.3180860426409162}, {"type": "position", "time": 48124, "x": 0.5371867798183574, "y": 0.3180860426409162}, {"type": "position", "time": 48174, "x": 0.5371867798183574, "y": 0.3180860426409162}, {"type": "position", "time": 48224, "x": 0.5371867798183574, "y": 0.3180860426409162}, {"type": "position", "time": 48274, "x": 0.5371867798183574, "y": 0.3180860426409162}, {"type": "position", "time": 48324, "x": 0.5371867798183574, "y": 0.3180860426409162}, {"type": "position", "time": 48374, "x": 0.5371867798183574, "y": 0.3180860426409162}, {"type": "position", "time": 48424, "x": 0.5371867798183574, "y": 0.3180860426409162}, {"type": "position", "time": 48474, "x": 0.5284418787515469, "y": 0.3180860426409162}, {"type": "position", "time": 48524, "x": 0.263596303585287, "y": 0.23981356094393683}, {"type": "position", "time": 48574, "x": 0.009994172647783394, "y": 0.19484851826694868}, {"type": "position", "time": 48624, "x": 0.009994172647783394, "y": 0.19484851826694868}, {"type": "position", "time": 48674, "x": 0.009994172647783394, "y": 0.19484851826694868}, {"type": "position", "time": 48724, "x": 0.009994172647783394, "y": 0.19484851826694868}, {"type": "position", "time": 48774, "x": 0.009994172647783394, "y": 0.19484851826694868}, {"type": "position", "time": 48824, "x": 0.009994172647783394, "y": 0.19484851826694868}, {"type": "position", "time": 48874, "x": 0.009994172647783394, "y": 0.19484851826694868}, {"type": "position", "time": 48924, "x": 0.009994172647783394, "y": 0.19484851826694868}, {"type": "position", "time": 48974, "x": 0.009994172647783394, "y": 0.19484851826694868}, {"type": "position", "time": 49024, "x": 0.009994172647783394, "y": 0.19484851826694868}, {"type": "position", "time": 49074, "x": 0.009994172647783394, "y": 0.19484851826694868}, {"type": "position", "time": 49124, "x": 0.009994172647783394, "y": 0.19484851826694868}, {"type": "position", "time": 49174, "x": 0.009994172647783394, "y": 0.19484851826694868}, {"type": "position", "time": 49224, "x": 0.009994172647783394, "y": 0.19484851826694868}, {"type": "position", "time": 49274, "x": 0.009994172647783394, "y": 0.19484851826694868}, {"type": "position", "time": 49324, "x": 0.009994172647783394, "y": 0.19484851826694868}, {"type": "position", "time": 49374, "x": 0.009994172647783394, "y": 0.19484851826694868}, {"type": "position", "time": 49424, "x": 0.009994172647783394, "y": 0.19484851826694868}, {"type": "position", "time": 49474, "x": 0.009994172647783394, "y": 0.19484851826694868}, {"type": "position", "time": 49524, "x": 0.009994172647783394, "y": 0.19484851826694868}, {"type": "position", "time": 49574, "x": 0.009994172647783394, "y": 0.19484851826694868}, {"type": "position", "time": 49624, "x": 0.009994172647783394, "y": 0.19484851826694868}, {"type": "position", "time": 49674, "x": 0.009994172647783394, "y": 0.19484851826694868}, {"type": "position", "time": 49724, "x": 0.009994172647783394, "y": 0.19484851826694868}, {"type": "position", "time": 49774, "x": 0.009994172647783394, "y": 0.19484851826694868}, {"type": "position", "time": 49824, "x": 0.009994172647783394, "y": 0.19484851826694868}, {"type": "position", "time": 49874, "x": 0.009994172647783394, "y": 0.19484851826694868}, {"type": "position", "time": 49924, "x": 0.009994172647783394, "y": 0.19484851826694868}, {"type": "position", "time": 49974, "x": 0.009994172647783394, "y": 0.19484851826694868}, {"type": "position", "time": 50024, "x": 0.009994172647783394, "y": 0.19484851826694868}, {"type": "position", "time": 50074, "x": 0.009994172647783394, "y": 0.19484851826694868}, {"type": "position", "time": 50125, "x": 0.009994172647783394, "y": 0.19484851826694868}, {"type": "position", "time": 50175, "x": 0.009994172647783394, "y": 0.19484851826694868}, {"type": "position", "time": 50225, "x": 0.009994172647783394, "y": 0.19484851826694868}, {"type": "position", "time": 50275, "x": 0.009994172647783394, "y": 0.19484851826694868}, {"type": "position", "time": 50325, "x": 0.009994172647783394, "y": 0.19484851826694868}, {"type": "position", "time": 50375, "x": 0.009994172647783394, "y": 0.19484851826694868}, {"type": "position", "time": 50425, "x": 0.009994172647783394, "y": 0.19484851826694868}, {"type": "position", "time": 50475, "x": 0.009994172647783394, "y": 0.19484851826694868}, {"type": "position", "time": 50525, "x": 0.009994172647783394, "y": 0.19484851826694868}, {"type": "position", "time": 50575, "x": 0.009994172647783394, "y": 0.19484851826694868}, {"type": "position", "time": 50625, "x": 0.009994172647783394, "y": 0.19484851826694868}, {"type": "position", "time": 50675, "x": 0.009994172647783394, "y": 0.19484851826694868}, {"type": "position", "time": 50725, "x": 0.009994172647783394, "y": 0.19484851826694868}, {"type": "position", "time": 50775, "x": 0.009994172647783394, "y": 0.19484851826694868}, {"type": "position", "time": 50825, "x": 0.009994172647783394, "y": 0.19484851826694868}, {"type": "position", "time": 50875, "x": 0.009994172647783394, "y": 0.19484851826694868}, {"type": "position", "time": 50925, "x": 0.009994172647783394, "y": 0.19484851826694868}, {"type": "position", "time": 50975, "x": 0.009994172647783394, "y": 0.19484851826694868}, {"type": "position", "time": 51025, "x": 0.009994172647783394, "y": 0.19484851826694868}, {"type": "position", "time": 51075, "x": 0.009994172647783394, "y": 0.19484851826694868}, {"type": "position", "time": 51125, "x": 0.009994172647783394, "y": 0.19484851826694868}, {"type": "position", "time": 51175, "x": 0.009994172647783394, "y": 0.19484851826694868}, {"type": "position", "time": 51225, "x": 0.009994172647783394, "y": 0.19484851826694868}, {"type": "position", "time": 51276, "x": 0.009994172647783394, "y": 0.19484851826694868}, {"type": "position", "time": 51325, "x": 0.009994172647783394, "y": 0.19484851826694868}, {"type": "position", "time": 51375, "x": 0.009994172647783394, "y": 0.19484851826694868}, {"type": "position", "time": 51425, "x": 0.009994172647783394, "y": 0.19484851826694868}, {"type": "position", "time": 51475, "x": 0.009994172647783394, "y": 0.19484851826694868}, {"type": "position", "time": 51525, "x": 0.009994172647783394, "y": 0.19484851826694868}, {"type": "position", "time": 51575, "x": 0.009994172647783394, "y": 0.19484851826694868}, {"type": "position", "time": 51625, "x": 0.009994172647783394, "y": 0.19484851826694868}, {"type": "position", "time": 51675, "x": 0.009994172647783394, "y": 0.19484851826694868}, {"type": "position", "time": 51725, "x": 0.009994172647783394, "y": 0.19484851826694868}, {"type": "position", "time": 51775, "x": 0.009994172647783394, "y": 0.19484851826694868}, {"type": "position", "time": 51825, "x": 0.009994172647783394, "y": 0.19484851826694868}, {"type": "position", "time": 51875, "x": 0.009994172647783394, "y": 0.19484851826694868}, {"type": "position", "time": 51925, "x": 0.009994172647783394, "y": 0.19484851826694868}, {"type": "position", "time": 51975, "x": 0.009994172647783394, "y": 0.19484851826694868}, {"type": "position", "time": 52025, "x": 0.009994172647783394, "y": 0.19484851826694868}, {"type": "position", "time": 52075, "x": 0.009994172647783394, "y": 0.19484851826694868}, {"type": "position", "time": 52125, "x": 0.009994172647783394, "y": 0.19484851826694868}, {"type": "position", "time": 52175, "x": 0.009994172647783394, "y": 0.19484851826694868}, {"type": "position", "time": 52225, "x": 0.009994172647783394, "y": 0.19484851826694868}, {"type": "position", "time": 52275, "x": 0.009994172647783394, "y": 0.19484851826694868}, {"type": "position", "time": 52325, "x": 0.009994172647783394, "y": 0.19484851826694868}, {"type": "position", "time": 52375, "x": 0.009994172647783394, "y": 0.19484851826694868}, {"type": "position", "time": 52425, "x": 0.009994172647783394, "y": 0.19484851826694868}, {"type": "position", "time": 52475, "x": 0.009994172647783394, "y": 0.19484851826694868}, {"type": "position", "time": 52525, "x": 0.009994172647783394, "y": 0.19484851826694868}, {"type": "position", "time": 52575, "x": 0.009994172647783394, "y": 0.19484851826694868}, {"type": "position", "time": 52625, "x": 0.009994172647783394, "y": 0.19484851826694868}, {"type": "position", "time": 52675, "x": 0.009994172647783394, "y": 0.19484851826694868}, {"type": "position", "time": 52725, "x": 0.009994172647783394, "y": 0.19484851826694868}, {"type": "position", "time": 52775, "x": 0.009994172647783394, "y": 0.19484851826694868}, {"type": "position", "time": 52825, "x": 0.009994172647783394, "y": 0.19484851826694868}, {"type": "position", "time": 52875, "x": 0.009994172647783394, "y": 0.19484851826694868}, {"type": "position", "time": 52925, "x": 0.009994172647783394, "y": 0.19484851826694868}, {"type": "position", "time": 52975, "x": 0.009994172647783394, "y": 0.19484851826694868}, {"type": "position", "time": 53025, "x": 0.009994172647783394, "y": 0.19484851826694868}, {"type": "position", "time": 53075, "x": 0.009994172647783394, "y": 0.19484851826694868}, {"type": "position", "time": 53125, "x": 0.009994172647783394, "y": 0.19484851826694868}, {"type": "position", "time": 53175, "x": 0.009994172647783394, "y": 0.19484851826694868}, {"type": "position", "time": 53225, "x": 0.009994172647783394, "y": 0.19484851826694868}, {"type": "position", "time": 53275, "x": 0.009994172647783394, "y": 0.19484851826694868}, {"type": "position", "time": 53325, "x": 0.009994172647783394, "y": 0.19484851826694868}, {"type": "position", "time": 53375, "x": 0.009994172647783394, "y": 0.19484851826694868}, {"type": "position", "time": 53425, "x": 0.009994172647783394, "y": 0.19484851826694868}, {"type": "position", "time": 53475, "x": 0.009994172647783394, "y": 0.19484851826694868}, {"type": "position", "time": 53525, "x": 0.009994172647783394, "y": 0.19484851826694868}, {"type": "position", "time": 53575, "x": 0.009994172647783394, "y": 0.19484851826694868}, {"type": "position", "time": 53625, "x": 0.009994172647783394, "y": 0.19484851826694868}, {"type": "position", "time": 53675, "x": 0.009994172647783394, "y": 0.19484851826694868}, {"type": "position", "time": 53725, "x": 0.009994172647783394, "y": 0.19484851826694868}, {"type": "position", "time": 53775, "x": 0.009994172647783394, "y": 0.19484851826694868}, {"type": "position", "time": 53825, "x": 0.009994172647783394, "y": 0.19484851826694868}, {"type": "position", "time": 53875, "x": 0.009994172647783394, "y": 0.19484851826694868}, {"type": "position", "time": 53925, "x": 0.009994172647783394, "y": 0.19484851826694868}, {"type": "position", "time": 53975, "x": 0.009994172647783394, "y": 0.19484851826694868}, {"type": "position", "time": 54025, "x": 0.009994172647783394, "y": 0.19484851826694868}, {"type": "position", "time": 54075, "x": 0.009994172647783394, "y": 0.19484851826694868}, {"type": "position", "time": 54125, "x": 0.009994172647783394, "y": 0.19484851826694868}, {"type": "position", "time": 54175, "x": 0.009994172647783394, "y": 0.19484851826694868}, {"type": "position", "time": 54225, "x": 0.009994172647783394, "y": 0.19484851826694868}, {"type": "position", "time": 54275, "x": 0.009994172647783394, "y": 0.19484851826694868}, {"type": "position", "time": 54325, "x": 0.009994172647783394, "y": 0.19484851826694868}, {"type": "position", "time": 54375, "x": 0.009994172647783394, "y": 0.19484851826694868}, {"type": "position", "time": 54425, "x": 0.009994172647783394, "y": 0.19484851826694868}, {"type": "position", "time": 54475, "x": 0.009994172647783394, "y": 0.19484851826694868}, {"type": "position", "time": 54525, "x": 0.009994172647783394, "y": 0.19484851826694868}, {"type": "position", "time": 54575, "x": 0.009994172647783394, "y": 0.19484851826694868}, {"type": "position", "time": 54625, "x": 0.009994172647783394, "y": 0.19484851826694868}, {"type": "position", "time": 54675, "x": 0.009994172647783394, "y": 0.19484851826694868}, {"type": "position", "time": 54725, "x": 0.009994172647783394, "y": 0.19484851826694868}, {"type": "position", "time": 54775, "x": 0.009994172647783394, "y": 0.19484851826694868}, {"type": "position", "time": 54825, "x": 0.009994172647783394, "y": 0.19484851826694868}, {"type": "position", "time": 54875, "x": 0.009994172647783394, "y": 0.19484851826694868}, {"type": "position", "time": 54925, "x": 0.009994172647783394, "y": 0.19484851826694868}, {"type": "position", "time": 54975, "x": 0.009994172647783394, "y": 0.19484851826694868}, {"type": "position", "time": 55025, "x": 0.009994172647783394, "y": 0.19484851826694868}, {"type": "position", "time": 55075, "x": 0.009994172647783394, "y": 0.19484851826694868}, {"type": "position", "time": 55125, "x": 0.009994172647783394, "y": 0.19484851826694868}, {"type": "position", "time": 55175, "x": 0.009994172647783394, "y": 0.19484851826694868}, {"type": "position", "time": 55225, "x": 0.009994172647783394, "y": 0.19484851826694868}, {"type": "position", "time": 55275, "x": 0.009994172647783394, "y": 0.19484851826694868}, {"type": "position", "time": 55325, "x": 0.009994172647783394, "y": 0.19484851826694868}, {"type": "position", "time": 55375, "x": 0.009994172647783394, "y": 0.19484851826694868}, {"type": "position", "time": 55425, "x": 0.009994172647783394, "y": 0.19484851826694868}, {"type": "position", "time": 55475, "x": 0.009994172647783394, "y": 0.19484851826694868}, {"type": "position", "time": 55525, "x": 0.009994172647783394, "y": 0.19484851826694868}, {"type": "position", "time": 55575, "x": 0.009994172647783394, "y": 0.19484851826694868}, {"type": "position", "time": 55625, "x": 0.009994172647783394, "y": 0.19484851826694868}, {"type": "position", "time": 55675, "x": 0.009994172647783394, "y": 0.19484851826694868}, {"type": "position", "time": 55725, "x": 0.009994172647783394, "y": 0.19484851826694868}, {"type": "position", "time": 55775, "x": 0.009994172647783394, "y": 0.19484851826694868}, {"type": "position", "time": 55825, "x": 0.009994172647783394, "y": 0.19484851826694868}, {"type": "position", "time": 55875, "x": 0.009994172647783394, "y": 0.19484851826694868}, {"type": "position", "time": 55925, "x": 0.009994172647783394, "y": 0.19484851826694868}, {"type": "position", "time": 55975, "x": 0.009994172647783394, "y": 0.19484851826694868}, {"type": "position", "time": 56025, "x": 0.009994172647783394, "y": 0.19484851826694868}, {"type": "position", "time": 56075, "x": 0.009994172647783394, "y": 0.19484851826694868}, {"type": "position", "time": 56125, "x": 0.009994172647783394, "y": 0.19484851826694868}, {"type": "position", "time": 56175, "x": 0.009994172647783394, "y": 0.19484851826694868}, {"type": "position", "time": 56225, "x": 0.009994172647783394, "y": 0.19484851826694868}, {"type": "position", "time": 56275, "x": 0.009994172647783394, "y": 0.19484851826694868}, {"type": "position", "time": 56325, "x": 0.009994172647783394, "y": 0.19484851826694868}, {"type": "position", "time": 56375, "x": 0.009994172647783394, "y": 0.19484851826694868}, {"type": "position", "time": 56425, "x": 0.009994172647783394, "y": 0.19484851826694868}, {"type": "position", "time": 56475, "x": 0.009994172647783394, "y": 0.19484851826694868}, {"type": "position", "time": 56525, "x": 0.009994172647783394, "y": 0.19484851826694868}, {"type": "position", "time": 56575, "x": 0.009994172647783394, "y": 0.19484851826694868}, {"type": "position", "time": 56625, "x": 0.009994172647783394, "y": 0.19484851826694868}, {"type": "position", "time": 56675, "x": 0.009994172647783394, "y": 0.19484851826694868}, {"type": "position", "time": 56725, "x": 0.009994172647783394, "y": 0.19484851826694868}, {"type": "position", "time": 56775, "x": 0.009994172647783394, "y": 0.19484851826694868}, {"type": "position", "time": 56825, "x": 0.009994172647783394, "y": 0.19484851826694868}, {"type": "position", "time": 56875, "x": 0.009994172647783394, "y": 0.19484851826694868}, {"type": "position", "time": 56925, "x": 0.009994172647783394, "y": 0.19484851826694868}, {"type": "position", "time": 56975, "x": 0.009994172647783394, "y": 0.19484851826694868}, {"type": "position", "time": 57025, "x": 0.009994172647783394, "y": 0.19484851826694868}, {"type": "position", "time": 57075, "x": 0.009994172647783394, "y": 0.19484851826694868}, {"type": "position", "time": 57125, "x": 0.009994172647783394, "y": 0.19484851826694868}, {"type": "position", "time": 57175, "x": 0.009994172647783394, "y": 0.19484851826694868}, {"type": "position", "time": 57225, "x": 0.009994172647783394, "y": 0.19484851826694868}, {"type": "position", "time": 57275, "x": 0.009994172647783394, "y": 0.19484851826694868}, {"type": "position", "time": 57325, "x": 0.009994172647783394, "y": 0.19484851826694868}, {"type": "position", "time": 57375, "x": 0.009994172647783394, "y": 0.19484851826694868}, {"type": "position", "time": 57425, "x": 0.009994172647783394, "y": 0.19484851826694868}, {"type": "position", "time": 57475, "x": 0.009994172647783394, "y": 0.19484851826694868}, {"type": "position", "time": 57525, "x": 0.009994172647783394, "y": 0.19484851826694868}, {"type": "position", "time": 57575, "x": 0.009994172647783394, "y": 0.19484851826694868}, {"type": "position", "time": 57625, "x": 0.009994172647783394, "y": 0.19484851826694868}, {"type": "position", "time": 57675, "x": 0.009994172647783394, "y": 0.19484851826694868}, {"type": "position", "time": 57725, "x": 0.009994172647783394, "y": 0.19484851826694868}, {"type": "position", "time": 57775, "x": 0.009994172647783394, "y": 0.19484851826694868}, {"type": "position", "time": 57825, "x": 0.009994172647783394, "y": 0.19484851826694868}, {"type": "position", "time": 57875, "x": 0.009994172647783394, "y": 0.19484851826694868}, {"type": "position", "time": 57925, "x": 0.009994172647783394, "y": 0.19484851826694868}, {"type": "position", "time": 57975, "x": 0.009994172647783394, "y": 0.19484851826694868}, {"type": "position", "time": 58025, "x": 0.009994172647783394, "y": 0.19484851826694868}, {"type": "position", "time": 58075, "x": 0.009994172647783394, "y": 0.19484851826694868}, {"type": "position", "time": 58125, "x": 0.009994172647783394, "y": 0.19484851826694868}, {"type": "position", "time": 58175, "x": 0.009994172647783394, "y": 0.19484851826694868}, {"type": "position", "time": 58225, "x": 0.26734411832820576, "y": 0.19484851826694868}, {"type": "position", "time": 58276, "x": 0.3872741901016065, "y": 0.09825694510897412}, {"type": "position", "time": 58326, "x": 0.3872741901016065, "y": 0}, {"type": "position", "time": 58376, "x": 0.29232954994766425, "y": 0.04163429877498903}, {"type": "position", "time": 58425, "x": 0.07495629485837546, "y": 0.07494173779498026}, {"type": "position", "time": 58475, "x": 0, "y": 0.068280249990982}, {"type": "position", "time": 58525, "x": 0, "y": 0.068280249990982}, {"type": "position", "time": 58575, "x": 0.17489802133620938, "y": 0.004996115852998684}, {"type": "position", "time": 58625, "x": 0.8869828224907762, "y": 0.501276957250868}, {"type": "position", "time": 58675, "x": 0.9207131551770452, "y": 0.53125365236886}, {"type": "position", "time": 58725, "x": 0.9207131551770452, "y": 0.53125365236886}, {"type": "position", "time": 58775, "x": 0.9207131551770452, "y": 0.53125365236886}, {"type": "position", "time": 58825, "x": 0.9207131551770452, "y": 0.53125365236886}, {"type": "position", "time": 58875, "x": 0.9207131551770452, "y": 0.53125365236886}, {"type": "position", "time": 58925, "x": 0.9207131551770452, "y": 0.53125365236886}, {"type": "position", "time": 58975, "x": 0.9207131551770452, "y": 0.53125365236886}, {"type": "position", "time": 59025, "x": 0.9207131551770452, "y": 0.53125365236886}, {"type": "position", "time": 59075, "x": 0.9207131551770452, "y": 0.53125365236886}, {"type": "position", "time": 59125, "x": 0.8844842793288303, "y": 0.816032255989785}, {"type": "position", "time": 59175, "x": 0.6183894325815975, "y": 0.8410128352547784}, {"type": "position", "time": 59225, "x": 0.6058967167718683, "y": 0.827689859646782}, {"type": "position", "time": 59276, "x": 0.6246357904864621, "y": 0.6594872925958263}, {"type": "position", "time": 59325, "x": 0.6446241357820289, "y": 0.56955720724185}, {"type": "position", "time": 59375, "x": 0.6446241357820289, "y": 0.56955720724185}, {"type": "position", "time": 59425, "x": 0.6121430746767329, "y": 0.5645610913888512}, {"type": "position", "time": 59475, "x": 0.5846590998953285, "y": 0.5379151401728582}, {"type": "position", "time": 59525, "x": 0.5784127419904639, "y": 0.5245921645648618}, {"type": "position", "time": 59575, "x": 0.5734156556665723, "y": 0.5096038170058658}, {"type": "position", "time": 59625, "x": 0.5534273103710055, "y": 0.47463100603487496}, {"type": "position", "time": 59675, "x": 0.5346882366564115, "y": 0.47463100603487496}, {"type": "position", "time": 59725, "x": 0.48721591657944047, "y": 0.46130803042687846}, {"type": "position", "time": 59775, "x": 0.4847173734174946, "y": 0.46130803042687846}, {"type": "position", "time": 59825, "x": 0.4847173734174946, "y": 0.46130803042687846}, {"type": "click", "time": 59860, "x": 0.4847173734174946, "y": 0.46130803042687846}, {"type": "position", "time": 59890, "x": 0.4847173734174946, "y": 0.46130803042687846}, {"type": "position", "time": 59925, "x": 0.47722174393165706, "y": 0.46130803042687846}, {"type": "position", "time": 59975, "x": 0.27109193307112456, "y": 0.44631968286788243}, {"type": "position", "time": 60025, "x": 0.21987179825123468, "y": 0.45464654262288023}, {"type": "position", "time": 60075, "x": 0.2173732550892888, "y": 0.4563119145738798}, {"type": "position", "time": 60125, "x": 0.23861087196582853, "y": 0.4563119145738798}, {"type": "position", "time": 60176, "x": 0.247355773032639, "y": 0.4513157987208811}, {"type": "position", "time": 60225, "x": 0.16365457710745307, "y": 0.4163429877498903}, {"type": "position", "time": 60275, "x": 0.04497377691502527, "y": 0.3980238962888952}, {"type": "position", "time": 60325, "x": 0.04497377691502527, "y": 0.3980238962888952}, {"type": "position", "time": 60375, "x": 0.04497377691502527, "y": 0.3980238962888952}, {"type": "position", "time": 60425, "x": 0.04497377691502527, "y": 0.3980238962888952}, {"type": "position", "time": 60475, "x": 0.04497377691502527, "y": 0.3980238962888952}, {"type": "position", "time": 60525, "x": 0.04497377691502527, "y": 0.3980238962888952}, {"type": "position", "time": 60575, "x": 0.04497377691502527, "y": 0.3980238962888952}, {"type": "position", "time": 60625, "x": 0.04497377691502527, "y": 0.3980238962888952}, {"type": "position", "time": 60675, "x": 0.04497377691502527, "y": 0.3980238962888952}, {"type": "position", "time": 60725, "x": 0.04497377691502527, "y": 0.3980238962888952}, {"type": "position", "time": 60775, "x": 0.04497377691502527, "y": 0.3980238962888952}, {"type": "position", "time": 60825, "x": 0.04497377691502527, "y": 0.3980238962888952}, {"type": "position", "time": 60875, "x": 0.04497377691502527, "y": 0.3980238962888952}, {"type": "position", "time": 60925, "x": 0.04497377691502527, "y": 0.3980238962888952}, {"type": "position", "time": 60975, "x": 0.04497377691502527, "y": 0.3980238962888952}, {"type": "position", "time": 61025, "x": 0.04497377691502527, "y": 0.3980238962888952}, {"type": "position", "time": 61075, "x": 0.04497377691502527, "y": 0.3980238962888952}, {"type": "position", "time": 61125, "x": 0.04497377691502527, "y": 0.3980238962888952}, {"type": "position", "time": 61175, "x": 0.04497377691502527, "y": 0.3980238962888952}, {"type": "position", "time": 61225, "x": 0.04497377691502527, "y": 0.3980238962888952}, {"type": "position", "time": 61275, "x": 0.04497377691502527, "y": 0.3980238962888952}, {"type": "position", "time": 61325, "x": 0.04497377691502527, "y": 0.3980238962888952}, {"type": "position", "time": 61375, "x": 0.04497377691502527, "y": 0.3980238962888952}, {"type": "position", "time": 61425, "x": 0.04497377691502527, "y": 0.3980238962888952}, {"type": "position", "time": 61475, "x": 0.04497377691502527, "y": 0.3980238962888952}, {"type": "position", "time": 61525, "x": 0.04497377691502527, "y": 0.3980238962888952}, {"type": "position", "time": 61575, "x": 0.08994755383005054, "y": 0.4396581950638842}, {"type": "position", "time": 61625, "x": 0.19863418137469496, "y": 0.44631968286788243}, {"type": "position", "time": 61675, "x": 0.19863418137469496, "y": 0.44631968286788243}, {"type": "position", "time": 61725, "x": 0.19363709505080326, "y": 0.447985054818882}, {"type": "position", "time": 61775, "x": 0.1761472929171823, "y": 0.46130803042687846}, {"type": "position", "time": 61825, "x": 0.148663318135778, "y": 0.5096038170058658}, {"type": "position", "time": 61875, "x": 0.12492715809729242, "y": 0.5962031584578429}, {"type": "position", "time": 61925, "x": 0.10119099805880687, "y": 0.6461643169878298}, {"type": "position", "time": 61975, "x": 0.09619391173491516, "y": 0.6511604328408285}, {"type": "position", "time": 62025, "x": 0.09619391173491516, "y": 0.6511604328408285}, {"type": "position", "time": 62075, "x": 0.1186808001924278, "y": 0.6544911767428276}, {"type": "position", "time": 62125, "x": 0.16615312026939894, "y": 0.6644834084488249}, {"type": "position", "time": 62175, "x": 0.21362544034637004, "y": 0.6694795243018237}, {"type": "position", "time": 62225, "x": 0.2323645140609639, "y": 0.6728102682038227}, {"type": "position", "time": 62275, "x": 0.2323645140609639, "y": 0.6728102682038227}, {"type": "position", "time": 62325, "x": 0.2323645140609639, "y": 0.6728102682038227}, {"type": "position", "time": 62375, "x": 0.2323645140609639, "y": 0.6744756401548223}, {"type": "position", "time": 62425, "x": 0.2323645140609639, "y": 0.6744756401548223}, {"type": "position", "time": 62475, "x": 0.2323645140609639, "y": 0.6744756401548223}, {"type": "position", "time": 62525, "x": 0.2323645140609639, "y": 0.6744756401548223}, {"type": "position", "time": 62575, "x": 0.2323645140609639, "y": 0.6744756401548223}, {"type": "position", "time": 62625, "x": 0.2323645140609639, "y": 0.6744756401548223}, {"type": "position", "time": 62675, "x": 0.2323645140609639, "y": 0.6744756401548223}, {"type": "position", "time": 62725, "x": 0.2323645140609639, "y": 0.6744756401548223}, {"type": "position", "time": 62775, "x": 0.2323645140609639, "y": 0.6744756401548223}, {"type": "position", "time": 62825, "x": 0.2323645140609639, "y": 0.6744756401548223}, {"type": "position", "time": 62875, "x": 0.2323645140609639, "y": 0.6744756401548223}, {"type": "position", "time": 62925, "x": 0.2323645140609639, "y": 0.6744756401548223}, {"type": "position", "time": 62975, "x": 0.2323645140609639, "y": 0.6744756401548223}, {"type": "position", "time": 63025, "x": 0.2323645140609639, "y": 0.6744756401548223}, {"type": "position", "time": 63075, "x": 0.2323645140609639, "y": 0.6744756401548223}, {"type": "position", "time": 63125, "x": 0.23361378564193683, "y": 0.6744756401548223}, {"type": "position", "time": 63175, "x": 0.24485722987069314, "y": 0.6728102682038227}, {"type": "position", "time": 63225, "x": 0.29232954994766425, "y": 0.6128568779678385}, {"type": "position", "time": 63275, "x": 0.3772800174538231, "y": 0.527922908466861}, {"type": "position", "time": 63325, "x": 0.42974942385468595, "y": 0.501276957250868}, {"type": "position", "time": 63375, "x": 0.45723339863609025, "y": 0.49295009749587015}, {"type": "position", "time": 63425, "x": 0.5296911503325199, "y": 0.4946154694468697}, {"type": "position", "time": 63475, "x": 0.5371867798183574, "y": 0.49628084139786927}, {"type": "position", "time": 63525, "x": 0.5596736682758701, "y": 0.4996115852998684}, {"type": "position", "time": 63575, "x": 0.6183894325815975, "y": 0.4946154694468697}, {"type": "position", "time": 63625, "x": 0.6358792347152185, "y": 0.49295009749587015}, {"type": "position", "time": 63675, "x": 0.6358792347152185, "y": 0.49295009749587015}, {"type": "position", "time": 63725, "x": 0.6358792347152185, "y": 0.49295009749587015}, {"type": "position", "time": 63775, "x": 0.6358792347152185, "y": 0.49295009749587015}, {"type": "position", "time": 63825, "x": 0.6383777778771643, "y": 0.49128472554487057}, {"type": "position", "time": 63875, "x": 0.6508704936868935, "y": 0.4862886096918719}, {"type": "position", "time": 63925, "x": 0.6683602958205145, "y": 0.4862886096918719}, {"type": "position", "time": 63975, "x": 0.6733573821444062, "y": 0.4862886096918719}, {"type": "position", "time": 64025, "x": 0.6733573821444062, "y": 0.4862886096918719}, {"type": "slider", "time": 64058, "value": 0.77}, {"type": "position", "time": 64075, "x": 0.6733573821444062, "y": 0.4862886096918719}, {"type": "click", "time": 64115, "x": 0.6733573821444062, "y": 0.4862886096918719}, {"type": "position", "time": 64125, "x": 0.6733573821444062, "y": 0.4862886096918719}, {"type": "position", "time": 64175, "x": 0.6733573821444062, "y": 0.4862886096918719}, {"type": "position", "time": 64225, "x": 0.6733573821444062, "y": 0.4862886096918719}, {"type": "position", "time": 64275, "x": 0.6733573821444062, "y": 0.4862886096918719}, {"type": "position", "time": 64325, "x": 0.677105196887325, "y": 0.4862886096918719}, {"type": "position", "time": 64376, "x": 0.6721081105634332, "y": 0.4862886096918719}, {"type": "position", "time": 64425, "x": 0.6496212221059205, "y": 0.4946154694468697}, {"type": "position", "time": 64475, "x": 0.6008996304479766, "y": 0.5229267926138622}, {"type": "position", "time": 64525, "x": 0.5659200261807347, "y": 0.5412458840748574}, {"type": "position", "time": 64575, "x": 0.5384360513993304, "y": 0.5562342316338534}, {"type": "position", "time": 64625, "x": 0.5359375082373845, "y": 0.5562342316338534}, {"type": "position", "time": 64675, "x": 0.5321896934944658, "y": 0.557899603584853}, {"type": "position", "time": 64727, "x": 0.5346882366564115, "y": 0.5545688596828539}, {"type": "position", "time": 64775, "x": 0.5359375082373845, "y": 0.5062730731038666}, {"type": "position", "time": 64825, "x": 0.5309404219134928, "y": 0.4862886096918719}, {"type": "position", "time": 64876, "x": 0.5309404219134928, "y": 0.47962712188787365}, {"type": "slider", "time": 64895, "value": 0.55}, {"type": "position", "time": 64925, "x": 0.5309404219134928, "y": 0.47962712188787365}, {"type": "click", "time": 64968, "x": 0.5309404219134928, "y": 0.47962712188787365}, {"type": "position", "time": 64978, "x": 0.5259433355896012, "y": 0.47962712188787365}, {"type": "position", "time": 65025, "x": 0.48346810183652167, "y": 0.48295786578987276}, {"type": "slider", "time": 65069, "value": 0.47}, {"type": "slider", "time": 65075, "value": 0.48}, {"type": "position", "time": 65075, "x": 0.48721591657944047, "y": 0.48462323774087235}, {"type": "slider", "time": 65101, "value": 0.49}, {"type": "position", "time": 65125, "x": 0.49596081764625094, "y": 0.48462323774087235}, {"type": "slider", "time": 65132, "value": 0.5}, {"type": "click", "time": 65134, "x": 0.4997086323891697, "y": 0.48462323774087235}, {"type": "position", "time": 65175, "x": 0.5134506197798718, "y": 0.49295009749587015}, {"type": "position", "time": 65225, "x": 0.5371867798183574, "y": 0.5379151401728582}, {"type": "position", "time": 65275, "x": 0.5359375082373845, "y": 0.5645610913888512}, {"type": "position", "time": 65325, "x": 0.5171984345227907, "y": 0.572887951143849}, {"type": "position", "time": 65375, "x": 0.5171984345227907, "y": 0.5745533230948486}, {"type": "click", "time": 65427, "x": 0.5171984345227907, "y": 0.5745533230948486}, {"type": "position", "time": 65433, "x": 0.5171984345227907, "y": 0.5745533230948486}, {"type": "position", "time": 65475, "x": 0.5196969776847364, "y": 0.5495727438298552}, {"type": "position", "time": 65525, "x": 0.5296911503325199, "y": 0.5096038170058658}, {"type": "position", "time": 65575, "x": 0.5296911503325199, "y": 0.5062730731038666}, {"type": "position", "time": 65625, "x": 0.5296911503325199, "y": 0.4996115852998684}, {"type": "position", "time": 65677, "x": 0.5296911503325199, "y": 0.49295009749587015}, {"type": "position", "time": 65725, "x": 0.5296911503325199, "y": 0.48795398164287146}, {"type": "position", "time": 65775, "x": 0.494711546065278, "y": 0.47130026213287585}, {"type": "position", "time": 65825, "x": 0.4897144597413863, "y": 0.46963489018187626}, {"type": "position", "time": 65875, "x": 0.4997086323891697, "y": 0.46963489018187626}, {"type": "position", "time": 65925, "x": 0.5284418787515469, "y": 0.46130803042687846}, {"type": "position", "time": 65977, "x": 0.5346882366564115, "y": 0.45964265847587893}, {"type": "position", "time": 66025, "x": 0.5359375082373845, "y": 0.45964265847587893}, {"type": "click", "time": 66054, "x": 0.5359375082373845, "y": 0.45964265847587893}, {"type": "position", "time": 66075, "x": 0.5359375082373845, "y": 0.45964265847587893}, {"type": "position", "time": 66125, "x": 0.5546765819519783, "y": 0.47130026213287585}, {"type": "position", "time": 66175, "x": 0.5709171125046264, "y": 0.47796174993687407}, {"type": "position", "time": 66225, "x": 0.5709171125046264, "y": 0.47796174993687407}, {"type": "click", "time": 66231, "x": 0.5734156556665723, "y": 0.47796174993687407}, {"type": "position", "time": 66275, "x": 0.593404000962139, "y": 0.47796174993687407}, {"type": "position", "time": 66325, "x": 0.5959025441240848, "y": 0.47796174993687407}, {"type": "position", "time": 66375, "x": 0.5959025441240848, "y": 0.47796174993687407}, {"type": "click", "time": 66383, "x": 0.5959025441240848, "y": 0.47796174993687407}, {"type": "position", "time": 66428, "x": 0.5959025441240848, "y": 0.47130026213287585}, {"type": "position", "time": 66475, "x": 0.5959025441240848, "y": 0.47130026213287585}, {"type": "position", "time": 66525, "x": 0.5959025441240848, "y": 0.47130026213287585}, {"type": "position", "time": 66575, "x": 0.5959025441240848, "y": 0.47130026213287585}, {"type": "position", "time": 66625, "x": 0.593404000962139, "y": 0.47130026213287585}, {"type": "position", "time": 66675, "x": 0.593404000962139, "y": 0.47130026213287585}, {"type": "position", "time": 66725, "x": 0.5909054578001932, "y": 0.47130026213287585}, {"type": "position", "time": 66775, "x": 0.5909054578001932, "y": 0.47130026213287585}, {"type": "position", "time": 66825, "x": 0.5909054578001932, "y": 0.47130026213287585}, {"type": "position", "time": 66875, "x": 0.5909054578001932, "y": 0.47130026213287585}, {"type": "position", "time": 66925, "x": 0.5909054578001932, "y": 0.47130026213287585}, {"type": "position", "