{"ApprovalTime": "2016-03-10T21:55:27Z", "SubmitTime": "2016-03-10T21:54:25Z", "AssignmentId": "3COPXFW7XBCFSBAZ419NF6MPTFRKPP", "HITId": "38G0E1M85M53D7EEUOHN21OJ7HQVU5", "answers": {"data": {"trials": [{"story": "reading", "time": 22055, "name": "Madison", "rt": 15533, "blocknum": 0, "qtype": "probability", "response": 0.37, "trialnum": 1, "gender": "female", "qnum": 0}, {"story": "reading", "time": 22055, "name": "Madison", "rt": 15533, "blocknum": 0, "qtype": "ungrammatical", "trialnum": 1, "gender": "female", "qnum": 0}, {"story": "reading", "time": 47006, "name": "Scott", "rt": 24947, "blocknum": 0, "qtype": "explanation", "response": "Was reading simple words.", "trialnum": 2, "gender": "male", "qnum": 1}, {"story": "reading", "time": 51874, "name": "Scott", "rt": 4862, "blocknum": 0, "qtype": "probability", "response": 0.39, "trialnum": 3, "gender": "male", "qnum": 2}, {"story": "reading", "time": 51874, "name": "Scott", "rt": 4862, "blocknum": 0, "qtype": "ungrammatical", "trialnum": 3, "gender": "male", "qnum": 2}, {"story": "reading", "time": 67738, "name": "Matthew", "rt": 15861, "blocknum": 0, "qtype": "probability", "response": 0.36, "trialnum": 4, "gender": "male", "qnum": 3}, {"story": "reading", "time": 67738, "name": "Matthew", "rt": 15861, "blocknum": 0, "qtype": "ungrammatical", "response": true, "trialnum": 4, "gender": "male", "qnum": 3}, {"story": "reading", "time": 86376, "name": "Kelly", "rt": 18635, "blocknum": 0, "qtype": "probability", "response": 0.37, "trialnum": 5, "gender": "female", "qnum": 4}, {"story": "reading", "time": 86376, "name": "Kelly", "rt": 18635, "blocknum": 0, "qtype": "ungrammatical", "response": true, "trialnum": 5, "gender": "female", "qnum": 4}, {"story": "reading", "time": 94292, "name": "Kim", "rt": 7910, "blocknum": 0, "qtype": "probability", "response": 0.18, "trialnum": 6, "gender": "female", "qnum": 5}, {"story": "reading", "time": 94292, "name": "Kim", "rt": 7910, "blocknum": 0, "qtype": "ungrammatical", "response": false, "trialnum": 6, "gender": "female", "qnum": 5}, {"story": "painting", "time": 102122, "name": "Jeff", "rt": 7826, "blocknum": 1, "qtype": "probability", "response": 0.73, "trialnum": 8, "gender": "male", "qnum": 0}, {"story": "painting", "time": 102122, "name": "Jeff", "rt": 7826, "blocknum": 1, "qtype": "ungrammatical", "trialnum": 8, "gender": "male", "qnum": 0}, {"story": "painting", "time": 117559, "name": "Steven", "rt": 15435, "blocknum": 1, "qtype": "explanation", "response": "he was careful", "trialnum": 9, "gender": "male", "qnum": 1}, {"story": "painting", "time": 120458, "name": "Steven", "rt": 2895, "blocknum": 1, "qtype": "probability", "response": 0.7, "trialnum": 10, "gender": "male", "qnum": 2}, {"story": "painting", "time": 120458, "name": "Steven", "rt": 2895, "blocknum": 1, "qtype": "ungrammatical", "trialnum": 10, "gender": "male", "qnum": 2}, {"story": "painting", "time": 127460, "name": "Rick", "rt": 6999, "blocknum": 1, "qtype": "probability", "response": 0.72, "trialnum": 11, "gender": "male", "qnum": 3}, {"story": "painting", "time": 127460, "name": "Rick", "rt": 6999, "blocknum": 1, "qtype": "ungrammatical", "response": false, "trialnum": 11, "gender": "male", "qnum": 3}, {"story": "painting", "time": 133639, "name": "Kaitlyn", "rt": 6176, "blocknum": 1, "qtype": "probability", "response": 0.68, "trialnum": 12, "gender": "female", "qnum": 4}, {"story": "painting", "time": 133639, "name": "Kaitlyn", "rt": 6176, "blocknum": 1, "qtype": "ungrammatical", "response": false, "trialnum": 12, "gender": "female", "qnum": 4}, {"story": "painting", "time": 138190, "name": "Cassandra", "rt": 4548, "blocknum": 1, "qtype": "probability", "response": 0.69, "trialnum": 13, "gender": "female", "qnum": 5}, {"story": "painting", "time": 138190, "name": "Cassandra", "rt": 4548, "blocknum": 1, "qtype": "ungrammatical", "response": false, "trialnum": 13, "gender": "female", "qnum": 5}, {"story": "cooking", "time": 147022, "name": "Alexandra", "rt": 8829, "blocknum": 2, "qtype": "probability", "response": 0.56, "trialnum": 15, "gender": "female", "qnum": 0}, {"story": "cooking", "time": 147022, "name": "Alexandra", "rt": 8829, "blocknum": 2, "qtype": "ungrammatical", "trialnum": 15, "gender": "female", "qnum": 0}, {"story": "cooking", "time": 157304, "name": "Melissa", "rt": 10280, "blocknum": 2, "qtype": "explanation", "response": "she didn't pay attention", "trialnum": 16, "gender": "female", "qnum": 1}, {"story": "cooking", "time": 160603, "name": "Melissa", "rt": 3296, "blocknum": 2, "qtype": "probability", "response": 0.58, "trialnum": 17, "gender": "female", "qnum": 2}, {"story": "cooking", "time": 160603, "name": "Melissa", "rt": 3296, "blocknum": 2, "qtype": "ungrammatical", "trialnum": 17, "gender": "female", "qnum": 2}, {"story": "cooking", "time": 164793, "name": "Caleb", "rt": 4187, "blocknum": 2, "qtype": "probability", "response": 0.62, "trialnum": 18, "gender": "male", "qnum": 3}, {"story": "cooking", "time": 164793, "name": "Caleb", "rt": 4187, "blocknum": 2, "qtype": "ungrammatical", "response": false, "trialnum": 18, "gender": "male", "qnum": 3}, {"story": "cooking", "time": 169654, "name": "Vanessa", "rt": 4859, "blocknum": 2, "qtype": "probability", "response": 0.62, "trialnum": 19, "gender": "female", "qnum": 4}, {"story": "cooking", "time": 169654, "name": "Vanessa", "rt": 4859, "blocknum": 2, "qtype": "ungrammatical", "response": false, "trialnum": 19, "gender": "female", "qnum": 4}, {"story": "cooking", "time": 173736, "name": "Crystal", "rt": 4078, "blocknum": 2, "qtype": "probability", "response": 0.63, "trialnum": 20, "gender": "female", "qnum": 5}, {"story": "cooking", "time": 173736, "name": "Crystal", "rt": 4078, "blocknum": 2, "qtype": "ungrammatical", "response": false, "trialnum": 20, "gender": "female", "qnum": 5}, {"story": "guitar", "time": 184303, "name": "Brooke", "rt": 10563, "blocknum": 3, "qtype": "probability", "response": 0.38, "trialnum": 22, "gender": "female", "qnum": 0}, {"story": "guitar", "time": 184303, "name": "Brooke", "rt": 10563, "blocknum": 3, "qtype": "ungrammatical", "trialnum": 22, "gender": "female", "qnum": 0}, {"story": "guitar", "time": 204641, "name": "Erica", "rt": 20336, "blocknum": 3, "qtype": "explanation", "response": "her fingers were already calloused", "trialnum": 23, "gender": "female", "qnum": 1}, {"story": "guitar", "time": 208108, "name": "Erica", "rt": 3464, "blocknum": 3, "qtype": "probability", "response": 0.35, "trialnum": 24, "gender": "female", "qnum": 2}, {"story": "guitar", "time": 208108, "name": "Erica", "rt": 3464, "blocknum": 3, "qtype": "ungrammatical", "trialnum": 24, "gender": "female", "qnum": 2}, {"story": "guitar", "time": 214339, "name": "Megan", "rt": 6228, "blocknum": 3, "qtype": "probability", "response": 0.36, "trialnum": 25, "gender": "female", "qnum": 3}, {"story": "guitar", "time": 214339, "name": "Megan", "rt": 6228, "blocknum": 3, "qtype": "ungrammatical", "response": false, "trialnum": 25, "gender": "female", "qnum": 3}, {"story": "guitar", "time": 227598, "name": "Devin", "rt": 13257, "blocknum": 3, "qtype": "probability", "response": 0.4, "trialnum": 26, "gender": "male", "qnum": 4}, {"story": "guitar", "time": 227598, "name": "Devin", "rt": 13257, "blocknum": 3, "qtype": "ungrammatical", "response": true, "trialnum": 26, "gender": "male", "qnum": 4}, {"story": "guitar", "time": 269442, "name": "Michael", "rt": 41842, "blocknum": 3, "qtype": "probability", "response": 0.37, "trialnum": 27, "gender": "male", "qnum": 5}, {"story": "guitar", "time": 269442, "name": "Michael", "rt": 41842, "blocknum": 3, "qtype": "ungrammatical", "response": true, "trialnum": 27, "gender": "male", "qnum": 5}, {"story": "Japan", "time": 278357, "name": "Amanda", "rt": 8911, "blocknum": 4, "qtype": "probability", "response": 0.77, "trialnum": 29, "gender": "female", "qnum": 0}, {"story": "Japan", "time": 278357, "name": "Amanda", "rt": 8911, "blocknum": 4, "qtype": "ungrammatical", "trialnum": 29, "gender": "female", "qnum": 0}, {"story": "Japan", "time": 288324, "name": "Jacob", "rt": 9966, "blocknum": 4, "qtype": "explanation", "response": "he wore headphones", "trialnum": 30, "gender": "male", "qnum": 1}, {"story": "Japan", "time": 290963, "name": "Jacob", "rt": 2637, "blocknum": 4, "qtype": "probability", "response": 0.72, "trialnum": 31, "gender": "male", "qnum": 2}, {"story": "Japan", "time": 290963, "name": "Jacob", "rt": 2637, "blocknum": 4, "qtype": "ungrammatical", "trialnum": 31, "gender": "male", "qnum": 2}, {"story": "Japan", "time": 296473, "name": "Christopher", "rt": 5507, "blocknum": 4, "qtype": "probability", "response": 0.73, "trialnum": 32, "gender": "male", "qnum": 3}, {"story": "Japan", "time": 296473, "name": "Christopher", "rt": 5507, "blocknum": 4, "qtype": "ungrammatical", "response": false, "trialnum": 32, "gender": "male", "qnum": 3}, {"story": "Japan", "time": 300798, "name": "Emma", "rt": 4323, "blocknum": 4, "qtype": "probability", "response": 0.74, "trialnum": 33, "gender": "female", "qnum": 4}, {"story": "Japan", "time": 300798, "name": "Emma", "rt": 4323, "blocknum": 4, "qtype": "ungrammatical", "response": false, "trialnum": 33, "gender": "female", "qnum": 4}, {"story": "Japan", "time": 303778, "name": "Samantha", "rt": 2978, "blocknum": 4, "qtype": "probability", "response": 0.72, "trialnum": 34, "gender": "female", "qnum": 5}, {"story": "Japan", "time": 303778, "name": "Samantha", "rt": 2978, "blocknum": 4, "qtype": "ungrammatical", "response": false, "trialnum": 34, "gender": "female", "qnum": 5}, {"story": "insomnia", "time": 311850, "name": "Hannah", "rt": 8068, "blocknum": 5, "qtype": "probability", "response": 0.5, "trialnum": 36, "gender": "female", "qnum": 0}, {"story": "insomnia", "time": 311850, "name": "Hannah", "rt": 8068, "blocknum": 5, "qtype": "ungrammatical", "trialnum": 36, "gender": "female", "qnum": 0}, {"story": "insomnia", "time": 336173, "name": "Luis", "rt": 24321, "blocknum": 5, "qtype": "explanation", "response": "he didn't have to concentrate", "trialnum": 37, "gender": "male", "qnum": 1}, {"story": "insomnia", "time": 338671, "name": "Luis", "rt": 2496, "blocknum": 5, "qtype": "probability", "response": 0.5, "trialnum": 38, "gender": "male", "qnum": 2}, {"story": "insomnia", "time": 338671, "name": "Luis", "rt": 2496, "blocknum": 5, "qtype": "ungrammatical", "trialnum": 38, "gender": "male", "qnum": 2}, {"story": "insomnia", "time": 343878, "name": "Victoria", "rt": 5204, "blocknum": 5, "qtype": "probability", "response": 0.46, "trialnum": 39, "gender": "female", "qnum": 3}, {"story": "insomnia", "time": 343878, "name": "Victoria", "rt": 5204, "blocknum": 5, "qtype": "ungrammatical", "response": false, "trialnum": 39, "gender": "female", "qnum": 3}, {"story": "insomnia", "time": 346998, "name": "Laura", "rt": 3118, "blocknum": 5, "qtype": "probability", "response": 0.42, "trialnum": 40, "gender": "female", "qnum": 4}, {"story": "insomnia", "time": 346998, "name": "Laura", "rt": 3118, "blocknum": 5, "qtype": "ungrammatical", "response": false, "trialnum": 40, "gender": "female", "qnum": 4}, {"story": "insomnia", "time": 349299, "name": "Charles", "rt": 2299, "blocknum": 5, "qtype": "probability", "response": 0.44, "trialnum": 41, "gender": "male", "qnum": 5}, {"story": "insomnia", "time": 349299, "name": "Charles", "rt": 2299, "blocknum": 5, "qtype": "ungrammatical", "response": false, "trialnum": 41, "gender": "male", "qnum": 5}, {"story": "coffee", "time": 358702, "name": "Nathan", "rt": 9400, "blocknum": 6, "qtype": "probability", "response": 0.59, "trialnum": 43, "gender": "male", "qnum": 0}, {"story": "coffee", "time": 358702, "name": "Nathan", "rt": 9400, "blocknum": 6, "qtype": "ungrammatical", "trialnum": 43, "gender": "male", "qnum": 0}, {"story": "coffee", "time": 370398, "name": "Thomas", "rt": 11695, "blocknum": 6, "qtype": "explanation", "response": "he drank it a long time ago", "trialnum": 44, "gender": "male", "qnum": 1}, {"story": "coffee", "time": 386194, "name": "Thomas", "rt": 15794, "blocknum": 6, "qtype": "probability", "response": 0.23, "trialnum": 45, "gender": "male", "qnum": 2}, {"story": "coffee", "time": 386194, "name": "Thomas", "rt": 15794, "blocknum": 6, "qtype": "ungrammatical", "trialnum": 45, "gender": "male", "qnum": 2}, {"story": "coffee", "time": 395181, "name": "Carlos", "rt": 8985, "blocknum": 6, "qtype": "probability", "response": 0.49, "trialnum": 46, "gender": "male", "qnum": 3}, {"story": "coffee", "time": 395181, "name": "Carlos", "rt": 8985, "blocknum": 6, "qtype": "ungrammatical", "response": false, "trialnum": 46, "gender": "male", "qnum": 3}, {"story": "coffee", "time": 399563, "name": "Rachel", "rt": 4380, "blocknum": 6, "qtype": "probability", "response": 0.72, "trialnum": 47, "gender": "female", "qnum": 4}, {"story": "coffee", "time": 399563, "name": "Rachel", "rt": 4380, "blocknum": 6, "qtype": "ungrammatical", "response": false, "trialnum": 47, "gender": "female", "qnum": 4}, {"story": "coffee", "time": 405843, "name": "Kathryn", "rt": 6277, "blocknum": 6, "qtype": "probability", "response": 0.12, "trialnum": 48, "gender": "female", "qnum": 5}, {"story": "coffee", "time": 405843, "name": "Kathryn", "rt": 6277, "blocknum": 6, "qtype": "ungrammatical", "response": false, "trialnum": 48, "gender": "female", "qnum": 5}, {"story": "fitness", "time": 415550, "name": "Kristen", "rt": 9704, "blocknum": 7, "qtype": "probability", "response": 0.68, "trialnum": 50, "gender": "female", "qnum": 0}, {"story": "fitness", "time": 415550, "name": "Kristen", "rt": 9704, "blocknum": 7, "qtype": "ungrammatical", "trialnum": 50, "gender": "female", "qnum": 0}, {"story": "fitness", "time": 431010, "name": "Paul", "rt": 15459, "blocknum": 7, "qtype": "explanation", "response": "he didn't have any extra weight to lose", "trialnum": 51, "gender": "male", "qnum": 1}, {"story": "fitness", "time": 434571, "name": "Paul", "rt": 3558, "blocknum": 7, "qtype": "probability", "response": 0.66, "trialnum": 52, "gender": "male", "qnum": 2}, {"story": "fitness", "time": 434571, "name": "Paul", "rt": 3558, "blocknum": 7, "qtype": "ungrammatical", "trialnum": 52, "gender": "male", "qnum": 2}, {"story": "fitness", "time": 438711, "name": "Logan", "rt": 4138, "blocknum": 7, "qtype": "probability", "response": 0.69, "trialnum": 53, "gender": "male", "qnum": 3}, {"story": "fitness", "time": 438711, "name": "Logan", "rt": 4138, "blocknum": 7, "qtype": "ungrammatical", "response": false, "trialnum": 53, "gender": "male", "qnum": 3}, {"story": "fitness", "time": 442196, "name": "Ethan", "rt": 3483, "blocknum": 7, "qtype": "probability", "response": 0.74, "trialnum": 54, "gender": "male", "qnum": 4}, {"story": "fitness", "time": 442196, "name": "Ethan", "rt": 3483, "blocknum": 7, "qtype": "ungrammatical", "response": false, "trialnum": 54, "gender": "male", "qnum": 4}, {"story": "fitness", "time": 444940, "name": "Savannah", "rt": 2741, "blocknum": 7, "qtype": "probability", "response": 0.7, "trialnum": 55, "gender": "female", "qnum": 5}, {"story": "fitness", "time": 444940, "name": "Savannah", "rt": 2741, "blocknum": 7, "qtype": "ungrammatical", "response": false, "trialnum": 55, "gender": "female", "qnum": 5}, {"story": "beach", "time": 451179, "name": "Paige", "rt": 6235, "blocknum": 8, "qtype": "probability", "response": 0.61, "trialnum": 57, "gender": "female", "qnum": 0}, {"story": "beach", "time": 451179, "name": "Paige", "rt": 6235, "blocknum": 8, "qtype": "ungrammatical", "trialnum": 57, "gender": "female", "qnum": 0}, {"story": "beach", "time": 467330, "name": "Jason", "rt": 16150, "blocknum": 8, "qtype": "explanation", "response": "he wore sunscreen", "trialnum": 58, "gender": "male", "qnum": 1}, {"story": "beach", "time": 470563, "name": "Jason", "rt": 3231, "blocknum": 8, "qtype": "probability", "response": 0.49, "trialnum": 59, "gender": "male", "qnum": 2}, {"story": "beach", "time": 470563, "name": "Jason", "rt": 3231, "blocknum": 8, "qtype": "ungrammatical", "trialnum": 59, "gender": "male", "qnum": 2}, {"story": "beach", "time": 473659, "name": "Julia", "rt": 3094, "blocknum": 8, "qtype": "probability", "response": 0.49, "trialnum": 60, "gender": "female", "qnum": 3}, {"story": "beach", "time": 473659, "name": "Julia", "rt": 3094, "blocknum": 8, "qtype": "ungrammatical", "response": false, "trialnum": 60, "gender": "female", "qnum": 3}, {"story": "beach", "time": 475154, "name": "Katie", "rt": 1493, "blocknum": 8, "qtype": "probability", "response": 0.5, "trialnum": 61, "gender": "female", "qnum": 4}, {"story": "beach", "time": 475154, "name": "Katie", "rt": 1493, "blocknum": 8, "qtype": "ungrammatical", "response": false, "trialnum": 61, "gender": "female", "qnum": 4}, {"story": "beach", "time": 477671, "name": "John", "rt": 2515, "blocknum": 8, "qtype": "probability", "response": 0.5, "trialnum": 62, "gender": "male", "qnum": 5}, {"story": "beach", "time": 477671, "name": "John", "rt": 2515, "blocknum": 8, "qtype": "ungrammatical", "response": false, "trialnum": 62, "gender": "male", "qnum": 5}], "events": [{"type": "position", "time": 56, "x": 0, "y": 0}, {"type": "position", "time": 115, "x": 0, "y": 0}, {"type": "position", "time": 155, "x": null, "y": 0.5966666666666667}, {"type": "position", "time": 205, "x": null, "y": 0.59}, {"type": "position", "time": 255, "x": null, "y": 0.5833333333333334}, {"type": "position", "time": 305, "x": null, "y": 0.5783333333333334}, {"type": "position", "time": 355, "x": null, "y": 0.575}, {"type": "position", "time": 405, "x": null, "y": 0.565}, {"type": "position", "time": 455, "x": null, "y": 0.5633333333333334}, {"type": "position", "time": 505, "x": null, "y": 0.5616666666666666}, {"type": "position", "time": 555, "x": null, "y": 0.5616666666666666}, {"type": "position", "time": 605, "x": null, "y": 0.56}, {"type": "position", "time": 655, "x": null, "y": 0.55}, {"type": "position", "time": 705, "x": null, "y": 0.5483333333333333}, {"type": "position", "time": 755, "x": null, "y": 0.5466666666666666}, {"type": "position", "time": 805, "x": null, "y": 0.5466666666666666}, {"type": "position", "time": 855, "x": null, "y": 0.5416666666666666}, {"type": "position", "time": 905, "x": null, "y": 0.5333333333333333}, {"type": "position", "time": 955, "x": null, "y": 0.5183333333333333}, {"type": "position", "time": 1005, "x": null, "y": 0.505}, {"type": "position", "time": 1056, "x": null, "y": 0.49666666666666665}, {"type": "position", "time": 1105, "x": null, "y": 0.48333333333333334}, {"type": "position", "time": 1155, "x": null, "y": 0.4766666666666667}, {"type": "position", "time": 1206, "x": null, "y": 0.4766666666666667}, {"type": "position", "time": 1255, "x": null, "y": 0.4766666666666667}, {"type": "position", "time": 1306, "x": null, "y": 0.4766666666666667}, {"type": "position", "time": 1355, "x": null, "y": 0.4766666666666667}, {"type": "position", "time": 1406, "x": null, "y": 0.4766666666666667}, {"type": "position", "time": 1455, "x": null, "y": 0.4766666666666667}, {"type": "position", "time": 1505, "x": null, "y": 0.4766666666666667}, {"type": "position", "time": 1555, "x": null, "y": 0.4766666666666667}, {"type": "position", "time": 1605, "x": null, "y": 0.4766666666666667}, {"type": "position", "time": 1656, "x": null, "y": 0.4766666666666667}, {"type": "position", "time": 1706, "x": null, "y": 0.4766666666666667}, {"type": "position", "time": 1756, "x": null, "y": 0.4766666666666667}, {"type": "position", "time": 1806, "x": null, "y": 0.4766666666666667}, {"type": "position", "time": 1856, "x": null, "y": 0.4766666666666667}, {"type": "position", "time": 1906, "x": null, "y": 0.4766666666666667}, {"type": "position", "time": 1956, "x": null, "y": 0.4766666666666667}, {"type": "position", "time": 2006, "x": null, "y": 0.4766666666666667}, {"type": "position", "time": 2056, "x": null, "y": 0.4766666666666667}, {"type": "position", "time": 2106, "x": null, "y": 0.4766666666666667}, {"type": "position", "time": 2156, "x": null, "y": 0.4766666666666667}, {"type": "position", "time": 2206, "x": null, "y": 0.4766666666666667}, {"type": "position", "time": 2256, "x": null, "y": 0.4766666666666667}, {"type": "position", "time": 2306, "x": null, "y": 0.4766666666666667}, {"type": "position", "time": 2356, "x": null, "y": 0.4766666666666667}, {"type": "position", "time": 2406, "x": null, "y": 0.4766666666666667}, {"type": "position", "time": 2456, "x": null, "y": 0.4766666666666667}, {"type": "position", "time": 2506, "x": null, "y": 0.4766666666666667}, {"type": "position", "time": 2556, "x": null, "y": 0.4766666666666667}, {"type": "position", "time": 2606, "x": null, "y": 0.4766666666666667}, {"type": "position", "time": 2656, "x": null, "y": 0.4766666666666667}, {"type": "position", "time": 2706, "x": null, "y": 0.4766666666666667}, {"type": "position", "time": 2756, "x": null, "y": 0.4766666666666667}, {"type": "position", "time": 2806, "x": null, "y": 0.4766666666666667}, {"type": "position", "time": 2856, "x": null, "y": 0.4766666666666667}, {"type": "position", "time": 2906, "x": null, "y": 0.4766666666666667}, {"type": "position", "time": 2956, "x": null, "y": 0.4766666666666667}, {"type": "position", "time": 3006, "x": null, "y": 0.4766666666666667}, {"type": "position", "time": 3056, "x": null, "y": 0.4766666666666667}, {"type": "position", "time": 3106, "x": null, "y": 0.4766666666666667}, {"type": "position", "time": 3156, "x": null, "y": 0.4766666666666667}, {"type": "position", "time": 3206, "x": null, "y": 0.4766666666666667}, {"type": "position", "time": 3256, "x": null, "y": 0.4766666666666667}, {"type": "position", "time": 3306, "x": null, "y": 0.4766666666666667}, {"type": "position", "time": 3356, "x": null, "y": 0.4766666666666667}, {"type": "position", "time": 3406, "x": null, "y": 0.4766666666666667}, {"type": "position", "time": 3455, "x": null, "y": 0.4766666666666667}, {"type": "position", "time": 3505, "x": null, "y": 0.4766666666666667}, {"type": "position", "time": 3555, "x": null, "y": 0.4766666666666667}, {"type": "position", "time": 3605, "x": null, "y": 0.4766666666666667}, {"type": "position", "time": 3655, "x": null, "y": 0.4766666666666667}, {"type": "position", "time": 3706, "x": null, "y": 0.4766666666666667}, {"type": "position", "time": 3755, "x": null, "y": 0.4766666666666667}, {"type": "position", "time": 3806, "x": null, "y": 0.4766666666666667}, {"type": "position", "time": 3855, "x": null, "y": 0.4766666666666667}, {"type": "position", "time": 3905, "x": null, "y": 0.4766666666666667}, {"type": "position", "time": 3955, "x": null, "y": 0.4766666666666667}, {"type": "position", "time": 4006, "x": null, "y": 0.4766666666666667}, {"type": "position", "time": 4055, "x": null, "y": 0.4766666666666667}, {"type": "position", "time": 4105, "x": null, "y": 0.4766666666666667}, {"type": "position", "time": 4155, "x": null, "y": 0.4766666666666667}, {"type": "position", "time": 4205, "x": null, "y": 0.4766666666666667}, {"type": "position", "time": 4255, "x": null, "y": 0.4766666666666667}, {"type": "position", "time": 4305, "x": null, "y": 0.4766666666666667}, {"type": "position", "time": 4355, "x": null, "y": 0.4766666666666667}, {"type": "position", "time": 4405, "x": null, "y": 0.4766666666666667}, {"type": "position", "time": 4455, "x": null, "y": 0.4766666666666667}, {"type": "position", "time": 4505, "x": null, "y": 0.4766666666666667}, {"type": "position", "time": 4555, "x": null, "y": 0.4766666666666667}, {"type": "position", "time": 4605, "x": null, "y": 0.4766666666666667}, {"type": "position", "time": 4655, "x": null, "y": 0.4766666666666667}, {"type": "position", "time": 4705, "x": null, "y": 0.4766666666666667}, {"type": "position", "time": 4755, "x": null, "y": 0.4766666666666667}, {"type": "position", "time": 4805, "x": null, "y": 0.4766666666666667}, {"type": "position", "time": 4855, "x": null, "y": 0.4766666666666667}, {"type": "position", "time": 4905, "x": null, "y": 0.4766666666666667}, {"type": "position", "time": 4956, "x": null, "y": 0.4766666666666667}, {"type": "position", "time": 5006, "x": null, "y": 0.4766666666666667}, {"type": "position", "time": 5056, "x": null, "y": 0.4766666666666667}, {"type": "position", "time": 5106, "x": null, "y": 0.4766666666666667}, {"type": "position", "time": 5156, "x": null, "y": 0.4766666666666667}, {"type": "position", "time": 5206, "x": null, "y": 0.4766666666666667}, {"type": "position", "time": 5256, "x": null, "y": 0.4766666666666667}, {"type": "position", "time": 5306, "x": null, "y": 0.4766666666666667}, {"type": "position", "time": 5356, "x": null, "y": 0.4766666666666667}, {"type": "position", "time": 5406, "x": null, "y": 0.4766666666666667}, {"type": "position", "time": 5456, "x": null, "y": 0.4766666666666667}, {"type": "position", "time": 5506, "x": null, "y": 0.4766666666666667}, {"type": "position", "time": 5556, "x": null, "y": 0.4766666666666667}, {"type": "position", "time": 5606, "x": null, "y": 0.4766666666666667}, {"type": "position", "time": 5656, "x": null, "y": 0.4766666666666667}, {"type": "position", "time": 5706, "x": null, "y": 0.4766666666666667}, {"type": "position", "time": 5756, "x": null, "y": 0.4766666666666667}, {"type": "position", "time": 5806, "x": null, "y": 0.4766666666666667}, {"type": "position", "time": 5856, "x": null, "y": 0.4766666666666667}, {"type": "position", "time": 5906, "x": null, "y": 0.4766666666666667}, {"type": "position", "time": 5956, "x": null, "y": 0.4766666666666667}, {"type": "position", "time": 6006, "x": null, "y": 0.4766666666666667}, {"type": "position", "time": 6056, "x": null, "y": 0.4766666666666667}, {"type": "position", "time": 6106, "x": null, "y": 0.4766666666666667}, {"type": "position", "time": 6156, "x": null, "y": 0.4766666666666667}, {"type": "position", "time": 6206, "x": null, "y": 0.4766666666666667}, {"type": "position", "time": 6256, "x": null, "y": 0.4766666666666667}, {"type": "position", "time": 6306, "x": null, "y": 0.4766666666666667}, {"type": "position", "time": 6356, "x": null, "y": 0.4766666666666667}, {"type": "position", "time": 6406, "x": null, "y": 0.4766666666666667}, {"type": "position", "time": 6456, "x": null, "y": 0.4766666666666667}, {"type": "position", "time": 6506, "x": null, "y": 0.4766666666666667}, {"type": "click", "time": 6527, "x": null, "y": 0.4766666666666667}, {"type": "position", "time": 6556, "x": null, "y": 0.4766666666666667}, {"type": "position", "time": 6606, "x": null, "y": 0.4766666666666667}, {"type": "position", "time": 6656, "x": null, "y": 0.4766666666666667}, {"type": "position", "time": 6706, "x": null, "y": 0.4766666666666667}, {"type": "position", "time": 6756, "x": null, "y": 0.4766666666666667}, {"type": "position", "time": 6806, "x": null, "y": 0.4766666666666667}, {"type": "position", "time": 6855, "x": null, "y": 0.4766666666666667}, {"type": "position", "time": 6905, "x": null, "y": 0.4766666666666667}, {"type": "position", "time": 6955, "x": null, "y": 0.4766666666666667}, {"type": "position", "time": 7006, "x": null, "y": 0.4766666666666667}, {"type": "position", "time": 7055, "x": null, "y": 0.4766666666666667}, {"type": "position", "time": 7105, "x": null, "y": 0.4766666666666667}, {"type": "position", "time": 7155, "x": null, "y": 0.4766666666666667}, {"type": "position", "time": 7205, "x": null, "y": 0.4766666666666667}, {"type": "position", "time": 7255, "x": null, "y": 0.4766666666666667}, {"type": "position", "time": 7305, "x": null, "y": 0.4766666666666667}, {"type": "position", "time": 7356, "x": null, "y": 0.4766666666666667}, {"type": "position", "time": 7405, "x": null, "y": 0.4766666666666667}, {"type": "position", "time": 7455, "x": null, "y": 0.4766666666666667}, {"type": "position", "time": 7506, "x": null, "y": 0.485}, {"type": "position", "time": 7556, "x": null, "y": 0.5266666666666666}, {"type": "position", "time": 7607, "x": null, "y": 0.6}, {"type": "position", "time": 7655, "x": null, "y": 0.6316666666666667}, {"type": "position", "time": 7706, "x": null, "y": 0.655}, {"type": "position", "time": 7755, "x": null, "y": 0.69}, {"type": "position", "time": 7805, "x": null, "y": 0.7233333333333334}, {"type": "position", "time": 7856, "x": null, "y": 0.7566666666666667}, {"type": "position", "time": 7906, "x": null, "y": 0.8233333333333334}, {"type": "position", "time": 7956, "x": null, "y": 0.8533333333333334}, {"type": "position", "time": 8005, "x": null, "y": 0.8533333333333334}, {"type": "position", "time": 8056, "x": null, "y": 0.8533333333333334}, {"type": "position", "time": 8105, "x": null, "y": 0.8533333333333334}, {"type": "position", "time": 8156, "x": null, "y": 0.8366666666666667}, {"type": "position", "time": 8205, "x": null, "y": 0.82}, {"type": "position", "time": 8255, "x": null, "y": 0.82}, {"type": "position", "time": 8305, "x": null, "y": 0.82}, {"type": "position", "time": 8356, "x": null, "y": 0.82}, {"type": "position", "time": 8406, "x": null, "y": 0.82}, {"type": "position", "time": 8456, "x": null, "y": 0.82}, {"type": "position", "time": 8506, "x": null, "y": 0.82}, {"type": "position", "time": 8556, "x": null, "y": 0.82}, {"type": "position", "time": 8606, "x": null, "y": 0.82}, {"type": "position", "time": 8656, "x": null, "y": 0.82}, {"type": "position", "time": 8706, "x": null, "y": 0.82}, {"type": "position", "time": 8756, "x": null, "y": 0.82}, {"type": "position", "time": 8806, "x": null, "y": 0.82}, {"type": "position", "time": 8856, "x": null, "y": 0.82}, {"type": "position", "time": 8906, "x": null, "y": 0.82}, {"type": "position", "time": 8956, "x": null, "y": 0.82}, {"type": "position", "time": 9006, "x": null, "y": 0.82}, {"type": "position", "time": 9056, "x": null, "y": 0.82}, {"type": "position", "time": 9106, "x": null, "y": 0.82}, {"type": "position", "time": 9156, "x": null, "y": 0.82}, {"type": "position", "time": 9206, "x": null, "y": 0.82}, {"type": "position", "time": 9256, "x": null, "y": 0.82}, {"type": "position", "time": 9306, "x": null, "y": 0.82}, {"type": "position", "time": 9356, "x": null, "y": 0.82}, {"type": "position", "time": 9406, "x": null, "y": 0.82}, {"type": "position", "time": 9456, "x": null, "y": 0.82}, {"type": "position", "time": 9506, "x": null, "y": 0.82}, {"type": "position", "time": 9556, "x": null, "y": 0.82}, {"type": "position", "time": 9606, "x": null, "y": 0.82}, {"type": "position", "time": 9656, "x": null, "y": 0.82}, {"type": "position", "time": 9706, "x": null, "y": 0.82}, {"type": "position", "time": 9756, "x": null, "y": 0.82}, {"type": "position", "time": 9806, "x": null, "y": 0.82}, {"type": "position", "time": 9856, "x": null, "y": 0.82}, {"type": "position", "time": 9906, "x": null, "y": 0.82}, {"type": "position", "time": 9956, "x": null, "y": 0.82}, {"type": "position", "time": 10006, "x": null, "y": 0.82}, {"type": "position", "time": 10056, "x": null, "y": 0.82}, {"type": "position", "time": 10106, "x": null, "y": 0.82}, {"type": "position", "time": 10156, "x": null, "y": 0.82}, {"type": "position", "time": 10206, "x": null, "y": 0.82}, {"type": "position", "time": 10256, "x": null, "y": 0.82}, {"type": "position", "time": 10306, "x": null, "y": 0.82}, {"type": "position", "time": 10356, "x": null, "y": 0.82}, {"type": "position", "time": 10406, "x": null, "y": 0.82}, {"type": "position", "time": 10455, "x": null, "y": 0.82}, {"type": "position", "time": 10505, "x": null, "y": 0.82}, {"type": "position", "time": 10555, "x": null, "y": 0.82}, {"type": "position", "time": 10605, "x": null, "y": 0.82}, {"type": "position", "time": 10655, "x": null, "y": 0.82}, {"type": "position", "time": 10705, "x": null, "y": 0.82}, {"type": "position", "time": 10755, "x": null, "y": 0.82}, {"type": "position", "time": 10805, "x": null, "y": 0.82}, {"type": "position", "time": 10855, "x": null, "y": 0.82}, {"type": "position", "time": 10905, "x": null, "y": 0.82}, {"type": "position", "time": 10955, "x": null, "y": 0.82}, {"type": "position", "time": 11005, "x": null, "y": 0.82}, {"type": "position", "time": 11055, "x": null, "y": 0.82}, {"type": "position", "time": 11105, "x": null, "y": 0.82}, {"type": "position", "time": 11155, "x": null, "y": 0.82}, {"type": "position", "time": 11205, "x": null, "y": 0.82}, {"type": "position", "time": 11255, "x": null, "y": 0.82}, {"type": "position", "time": 11306, "x": null, "y": 0.82}, {"type": "position", "time": 11355, "x": null, "y": 0.82}, {"type": "position", "time": 11405, "x": null, "y": 0.82}, {"type": "position", "time": 11455, "x": null, "y": 0.82}, {"type": "position", "time": 11505, "x": null, "y": 0.82}, {"type": "position", "time": 11556, "x": null, "y": 0.82}, {"type": "position", "time": 11605, "x": null, "y": 0.82}, {"type": "position", "time": 11655, "x": null, "y": 0.82}, {"type": "position", "time": 11705, "x": null, "y": 0.82}, {"type": "position", "time": 11756, "x": null, "y": 0.82}, {"type": "position", "time": 11806, "x": null, "y": 0.82}, {"type": "position", "time": 11856, "x": null, "y": 0.82}, {"type": "position", "time": 11906, "x": null, "y": 0.82}, {"type": "position", "time": 11956, "x": null, "y": 0.82}, {"type": "position", "time": 12006, "x": null, "y": 0.82}, {"type": "position", "time": 12056, "x": null, "y": 0.82}, {"type": "position", "time": 12106, "x": null, "y": 0.82}, {"type": "position", "time": 12156, "x": null, "y": 0.82}, {"type": "position", "time": 12206, "x": null, "y": 0.82}, {"type": "position", "time": 12256, "x": null, "y": 0.82}, {"type": "position", "time": 12306, "x": null, "y": 0.82}, {"type": "position", "time": 12356, "x": null, "y": 0.82}, {"type": "position", "time": 12406, "x": null, "y": 0.82}, {"type": "position", "time": 12456, "x": null, "y": 0.82}, {"type": "position", "time": 12506, "x": null, "y": 0.82}, {"type": "position", "time": 12556, "x": null, "y": 0.82}, {"type": "position", "time": 12606, "x": null, "y": 0.82}, {"type": "position", "time": 12656, "x": null, "y": 0.82}, {"type": "position", "time": 12706, "x": null, "y": 0.82}, {"type": "position", "time": 12756, "x": null, "y": 0.82}, {"type": "position", "time": 12806, "x": null, "y": 0.82}, {"type": "position", "time": 12856, "x": null, "y": 0.82}, {"type": "position", "time": 12906, "x": null, "y": 0.82}, {"type": "position", "time": 12956, "x": null, "y": 0.82}, {"type": "position", "time": 13006, "x": null, "y": 0.82}, {"type": "position", "time": 13056, "x": null, "y": 0.82}, {"type": "position", "time": 13106, "x": null, "y": 0.82}, {"type": "position", "time": 13156, "x": null, "y": 0.82}, {"type": "position", "time": 13206, "x": null, "y": 0.82}, {"type": "position", "time": 13256, "x": null, "y": 0.82}, {"type": "position", "time": 13306, "x": null, "y": 0.82}, {"type": "position", "time": 13356, "x": null, "y": 0.82}, {"type": "position", "time": 13406, "x": null, "y": 0.82}, {"type": "position", "time": 13456, "x": null, "y": 0.82}, {"type": "position", "time": 13506, "x": null, "y": 0.82}, {"type": "position", "time": 13556, "x": null, "y": 0.82}, {"type": "position", "time": 13606, "x": null, "y": 0.82}, {"type": "position", "time": 13656, "x": null, "y": 0.82}, {"type": "position", "time": 13706, "x": null, "y": 0.82}, {"type": "position", "time": 13756, "x": null, "y": 0.82}, {"type": "position", "time": 13806, "x": null, "y": 0.82}, {"type": "position", "time": 13856, "x": null, "y": 0.82}, {"type": "position", "time": 13906, "x": null, "y": 0.82}, {"type": "position", "time": 13955, "x": null, "y": 0.82}, {"type": "position", "time": 14005, "x": null, "y": 0.82}, {"type": "position", "time": 14055, "x": null, "y": 0.82}, {"type": "position", "time": 14105, "x": null, "y": 0.82}, {"type": "position", "time": 14155, "x": null, "y": 0.82}, {"type": "position", "time": 14206, "x": null, "y": 0.82}, {"type": "position", "time": 14255, "x": null, "y": 0.82}, {"type": "position", "time": 14306, "x": null, "y": 0.82}, {"type": "position", "time": 14355, "x": null, "y": 0.82}, {"type": "position", "time": 14406, "x": null, "y": 0.82}, {"type": "position", "time": 14455, "x": null, "y": 0.82}, {"type": "position", "time": 14506, "x": null, "y": 0.82}, {"type": "position", "time": 14555, "x": null, "y": 0.82}, {"type": "position", "time": 14606, "x": null, "y": 0.82}, {"type": "position", "time": 14655, "x": null, "y": 0.82}, {"type": "position", "time": 14706, "x": null, "y": 0.82}, {"type": "position", "time": 14755, "x": null, "y": 0.82}, {"type": "position", "time": 14805, "x": null, "y": 0.82}, {"type": "position", "time": 14856, "x": null, "y": 0.82}, {"type": "position", "time": 14905, "x": null, "y": 0.82}, {"type": "position", "time": 14955, "x": null, "y": 0.82}, {"type": "position", "time": 15006, "x": null, "y": 0.82}, {"type": "position", "time": 15056, "x": null, "y": 0.82}, {"type": "position", "time": 15106, "x": null, "y": 0.82}, {"type": "position", "time": 15156, "x": null, "y": 0.82}, {"type": "position", "time": 15206, "x": null, "y": 0.82}, {"type": "position", "time": 15256, "x": null, "y": 0.82}, {"type": "position", "time": 15306, "x": null, "y": 0.82}, {"type": "position", "time": 15356, "x": null, "y": 0.82}, {"type": "position", "time": 15406, "x": null, "y": 0.82}, {"type": "position", "time": 15456, "x": null, "y": 0.82}, {"type": "position", "time": 15506, "x": null, "y": 0.82}, {"type": "position", "time": 15556, "x": null, "y": 0.82}, {"type": "position", "time": 15606, "x": null, "y": 0.82}, {"type": "position", "time": 15656, "x": null, "y": 0.82}, {"type": "position", "time": 15706, "x": null, "y": 0.82}, {"type": "position", "time": 15756, "x": null, "y": 0.82}, {"type": "position", "time": 15806, "x": null, "y": 0.82}, {"type": "position", "time": 15856, "x": null, "y": 0.82}, {"type": "position", "time": 15906, "x": null, "y": 0.82}, {"type": "position", "time": 15956, "x": null, "y": 0.82}, {"type": "position", "time": 16006, "x": null, "y": 0.82}, {"type": "position", "time": 16056, "x": null, "y": 0.82}, {"type": "position", "time": 16106, "x": null, "y": 0.82}, {"type": "position", "time": 16156, "x": null, "y": 0.82}, {"type": "position", "time": 16206, "x": null, "y": 0.82}, {"type": "position", "time": 16256, "x": null, "y": 0.82}, {"type": "position", "time": 16306, "x": null, "y": 0.82}, {"type": "position", "time": 16356, "x": null, "y": 0.82}, {"type": "position", "time": 16406, "x": null, "y": 0.82}, {"type": "position", "time": 16456, "x": null, "y": 0.82}, {"type": "position", "time": 16506, "x": null, "y": 0.82}, {"type": "position", "time": 16556, "x": null, "y": 0.82}, {"type": "position", "time": 16606, "x": null, "y": 0.82}, {"type": "position", "time": 16656, "x": null, "y": 0.82}, {"type": "position", "time": 16706, "x": null, "y": 0.82}, {"type": "position", "time": 16756, "x": null, "y": 0.82}, {"type": "position", "time": 16806, "x": null, "y": 0.82}, {"type": "position", "time": 16856, "x": null, "y": 0.82}, {"type": "position", "time": 16906, "x": null, "y": 0.82}, {"type": "position", "time": 16956, "x": null, "y": 0.82}, {"type": "position", "time": 17006, "x": null, "y": 0.82}, {"type": "position", "time": 17056, "x": null, "y": 0.82}, {"type": "position", "time": 17106, "x": null, "y": 0.82}, {"type": "position", "time": 17156, "x": null, "y": 0.82}, {"type": "position", "time": 17206, "x": null, "y": 0.82}, {"type": "position", "time": 17256, "x": null, "y": 0.82}, {"type": "position", "time": 17306, "x": null, "y": 0.82}, {"type": "position", "time": 17356, "x": null, "y": 0.82}, {"type": "position", "time": 17406, "x": null, "y": 0.82}, {"type": "position", "time": 17456, "x": null, "y": 0.82}, {"type": "position", "time": 17506, "x": null, "y": 0.82}, {"type": "position", "time": 17555, "x": null, "y": 0.82}, {"type": "position", "time": 17605, "x": null, "y": 0.82}, {"type": "position", "time": 17655, "x": null, "y": 0.82}, {"type": "position", "time": 17705, "x": null, "y": 0.82}, {"type": "position", "time": 17756, "x": null, "y": 0.82}, {"type": "position", "time": 17805, "x": null, "y": 0.82}, {"type": "position", "time": 17855, "x": null, "y": 0.82}, {"type": "position", "time": 17906, "x": null, "y": 0.82}, {"type": "position", "time": 17955, "x": null, "y": 0.82}, {"type": "position", "time": 18006, "x": null, "y": 0.82}, {"type": "position", "time": 18055, "x": null, "y": 0.82}, {"type": "position", "time": 18105, "x": null, "y": 0.82}, {"type": "position", "time": 18155, "x": null, "y": 0.82}, {"type": "position", "time": 18205, "x": null, "y": 0.82}, {"type": "position", "time": 18256, "x": null, "y": 0.82}, {"type": "position", "time": 18305, "x": null, "y": 0.82}, {"type": "position", "time": 18356, "x": null, "y": 0.82}, {"type": "position", "time": 18406, "x": null, "y": 0.82}, {"type": "position", "time": 18456, "x": null, "y": 0.82}, {"type": "position", "time": 18506, "x": null, "y": 0.8183333333333334}, {"type": "position", "time": 18556, "x": null, "y": 0.785}, {"type": "position", "time": 18606, "x": null, "y": 0.7783333333333333}, {"type": "position", "time": 18656, "x": null, "y": 0.7783333333333333}, {"type": "position", "time": 18706, "x": null, "y": 0.7766666666666666}, {"type": "position", "time": 18756, "x": null, "y": 0.7766666666666666}, {"type": "position", "time": 18806, "x": null, "y": 0.7766666666666666}, {"type": "position", "time": 18856, "x": null, "y": 0.7766666666666666}, {"type": "position", "time": 18906, "x": null, "y": 0.7766666666666666}, {"type": "position", "time": 18956, "x": null, "y": 0.7766666666666666}, {"type": "position", "time": 19006, "x": null, "y": 0.775}, {"type": "position", "time": 19057, "x": null, "y": 0.775}, {"type": "position", "time": 19106, "x": null, "y": 0.7766666666666666}, {"type": "position", "time": 19156, "x": null, "y": 0.7783333333333333}, {"type": "position", "time": 19206, "x": null, "y": 0.7783333333333333}, {"type": "position", "time": 19256, "x": null, "y": 0.7783333333333333}, {"type": "position", "time": 19306, "x": null, "y": 0.7783333333333333}, {"type": "position", "time": 19356, "x": null, "y": 0.7666666666666667}, {"type": "position", "time": 19406, "x": null, "y": 0.7666666666666667}, {"type": "position", "time": 19456, "x": null, "y": 0.7666666666666667}, {"type": "position", "time": 19506, "x": null, "y": 0.77}, {"type": "position", "time": 19556, "x": null, "y": 0.7733333333333333}, {"type": "position", "time": 19606, "x": null, "y": 0.7733333333333333}, {"type": "position", "time": 19656, "x": null, "y": 0.7733333333333333}, {"type": "position", "time": 19706, "x": null, "y": 0.7733333333333333}, {"type": "position", "time": 19756, "x": null, "y": 0.7733333333333333}, {"type": "position", "time": 19806, "x": null, "y": 0.7733333333333333}, {"type": "position", "time": 19856, "x": null, "y": 0.7483333333333333}, {"type": "position", "time": 19906, "x": null, "y": 0.7283333333333334}, {"type": "position", "time": 19956, "x": null, "y": 0.725}, {"type": "position", "time": 20006, "x": null, "y": 0.725}, {"type": "position", "time": 20056, "x": null, "y": 0.7133333333333334}, {"type": "position", "time": 20106, "x": null, "y": 0.7033333333333334}, {"type": "position", "time": 20156, "x": null, "y": 0.6833333333333333}, {"type": "position", "time": 20206, "x": null, "y": 0.6583333333333333}, {"type": "position", "time": 20256, "x": null, "y": 0.6516666666666666}, {"type": "position", "time": 20307, "x": null, "y": 0.645}, {"type": "position", "time": 20356, "x": null, "y": 0.6383333333333333}, {"type": "position", "time": 20406, "x": null, "y": 0.6266666666666667}, {"type": "position", "time": 20456, "x": null, "y": 0.6116666666666667}, {"type": "position", "time": 20506, "x": null, "y": 0.61}, {"type": "position", "time": 20556, "x": null, "y": 0.61}, {"type": "position", "time": 20606, "x": null, "y": 0.61}, {"type": "position", "time": 20656, "x": null, "y": 0.61}, {"type": "position", "time": 20706, "x": null, "y": 0.61}, {"type": "position", "time": 20756, "x": null, "y": 0.61}, {"type": "position", "time": 20806, "x": null, "y": 0.61}, {"type": "position", "time": 20856, "x": null, "y": 0.605}, {"type": "position", "time": 20906, "x": null, "y": 0.5966666666666667}, {"type": "position", "time": 20956, "x": null, "y": 0.5966666666666667}, {"type": "slider", "time": 21002, "value": 0.37}, {"type": "position", "time": 21006, "x": null, "y": 0.5966666666666667}, {"type": "position", "time": 21056, "x": null, "y": 0.5966666666666667}, {"type": "position", "time": 21105, "x": null, "y": 0.5966666666666667}, {"type": "click", "time": 21143, "x": null, "y": 0.5966666666666667}, {"type": "position", "time": 21155, "x": null, "y": 0.5966666666666667}, {"type": "position", "time": 21205, "x": null, "y": 0.5966666666666667}, {"type": "position", "time": 21256, "x": null, "y": 0.5966666666666667}, {"type": "position", "time": 21305, "x": null, "y": 0.5966666666666667}, {"type": "position", "time": 21355, "x": null, "y": 0.5966666666666667}, {"type": "position", "time": 21405, "x": null, "y": 0.595}, {"type": "position", "time": 21455, "x": null, "y": 0.595}, {"type": "position", "time": 21506, "x": null, "y": 0.6}, {"type": "position", "time": 21556, "x": null, "y": 0.62}, {"type": "position", "time": 21605, "x": null, "y": 0.66}, {"type": "position", "time": 21656, "x": null, "y": 0.6766666666666666}, {"type": "position", "time": 21706, "x": null, "y": 0.68}, {"type": "position", "time": 21756, "x": null, "y": 0.685}, {"type": "position", "time": 21806, "x": null, "y": 0.695}, {"type": "position", "time": 21856, "x": null, "y": 0.7033333333333334}, {"type": "position", "time": 21906, "x": null, "y": 0.705}, {"type": "position", "time": 21956, "x": null, "y": 0.705}, {"type": "position", "time": 22006, "x": null, "y": 0.705}, {"type": "click", "time": 22060, "x": null, "y": 0.705}, {"type": "position", "time": 22062, "x": null, "y": 0.705}, {"type": "position", "time": 22106, "x": null, "y": 0.705}, {"type": "position", "time": 22156, "x": null, "y": 0.715}, {"type": "position", "time": 22206, "x": null, "y": 0.73}, {"type": "position", "time": 22256, "x": null, "y": 0.7433333333333333}, {"type": "position", "time": 22306, "x": null, "y": 0.7483333333333333}, {"type": "position", "time": 22356, "x": null, "y": 0.755}, {"type": "position", "time": 22406, "x": null, "y": 0.7566666666666667}, {"type": "position", "time": 22456, "x": null, "y": 0.7566666666666667}, {"type": "position", "time": 22506, "x": null, "y": 0.7566666666666667}, {"type": "position", "time": 22556, "x": null, "y": 0.7566666666666667}, {"type": "position", "time": 22606, "x": null, "y": 0.7566666666666667}, {"type": "position", "time": 22656, "x": null, "y": 0.7566666666666667}, {"type": "position", "time": 22706, "x": null, "y": 0.7566666666666667}, {"type": "position", "time": 22756, "x": null, "y": 0.7566666666666667}, {"type": "position", "time": 22806, "x": null, "y": 0.7566666666666667}, {"type": "position", "time": 22856, "x": null, "y": 0.7566666666666667}, {"type": "position", "time": 22906, "x": null, "y": 0.755}, {"type": "position", "time": 22956, "x": null, "y": 0.755}, {"type": "position", "time": 23006, "x": null, "y": 0.7533333333333333}, {"type": "position", "time": 23056, "x": null, "y": 0.7516666666666667}, {"type": "position", "time": 23106, "x": null, "y": 0.7516666666666667}, {"type": "position", "time": 23156, "x": null, "y": 0.7516666666666667}, {"type": "position", "time": 23206, "x": null, "y": 0.7516666666666667}, {"type": "position", "time": 23256, "x": null, "y": 0.7516666666666667}, {"type": "position", "time": 23306, "x": null, "y": 0.7516666666666667}, {"type": "position", "time": 23356, "x": null, "y": 0.7516666666666667}, {"type": "position", "time": 23406, "x": null, "y": 0.745}, {"type": "position", "time": 23456, "x": null, "y": 0.7433333333333333}, {"type": "position", "time": 23506, "x": null, "y": 0.7433333333333333}, {"type": "position", "time": 23556, "x": null, "y": 0.7433333333333333}, {"type": "position", "time": 23606, "x": null, "y": 0.7433333333333333}, {"type": "position", "time": 23656, "x": null, "y": 0.7433333333333333}, {"type": "position", "time": 23706, "x": null, "y": 0.7366666666666667}, {"type": "position", "time": 23756, "x": null, "y": 0.7333333333333333}, {"type": "position", "time": 23806, "x": null, "y": 0.7333333333333333}, {"type": "position", "time": 23856, "x": null, "y": 0.7333333333333333}, {"type": "position", "time": 23906, "x": null, "y": 0.7333333333333333}, {"type": "position", "time": 23956, "x": null, "y": 0.7333333333333333}, {"type": "position", "time": 24006, "x": null, "y": 0.7283333333333334}, {"type": "position", "time": 24056, "x": null, "y": 0.72}, {"type": "position", "time": 24106, "x": null, "y": 0.7133333333333334}, {"type": "position", "time": 24156, "x": null, "y": 0.7116666666666667}, {"type": "position", "time": 24206, "x": null, "y": 0.71}, {"type": "position", "time": 24256, "x": null, "y": 0.705}, {"type": "position", "time": 24306, "x": null, "y": 0.7033333333333334}, {"type": "position", "time": 24356, "x": null, "y": 0.7033333333333334}, {"type": "position", "time": 24406, "x": null, "y": 0.7016666666666667}, {"type": "position", "time": 24456, "x": null, "y": 0.7016666666666667}, {"type": "position", "time": 24506, "x": null, "y": 0.7}, {"type": "position", "time": 24556, "x": null, "y": 0.6983333333333334}, {"type": "position", "time": 24606, "x": null, "y": 0.6983333333333334}, {"type": "position", "time": 24656, "x": null, "y": 0.6983333333333334}, {"type": "position", "time": 24706, "x": null, "y": 0.6983333333333334}, {"type": "position", "time": 24756, "x": null, "y": 0.6983333333333334}, {"type": "position", "time": 24805, "x": null, "y": 0.6983333333333334}, {"type": "position", "time": 24855, "x": null, "y": 0.6983333333333334}, {"type": "position", "time": 24907, "x": null, "y": 0.6983333333333334}, {"type": "position", "time": 24955, "x": null, "y": 0.6983333333333334}, {"type": "position", "time": 25005, "x": null, "y": 0.6983333333333334}, {"type": "position", "time": 25056, "x": null, "y": 0.6983333333333334}, {"type": "position", "time": 25106, "x": null, "y": 0.695}, {"type": "position", "time": 25156, "x": null, "y": 0.695}, {"type": "position", "time": 25206, "x": null, "y": 0.695}, {"type": "position", "time": 25256, "x": null, "y": 0.695}, {"type": "position", "time": 25306, "x": null, "y": 0.695}, {"type": "position", "time": 25356, "x": null, "y": 0.695}, {"type": "position", "time": 25406, "x": null, "y": 0.695}, {"type": "position", "time": 25456, "x": null, "y": 0.695}, {"type": "position", "time": 25506, "x": null, "y": 0.695}, {"type": "position", "time": 25556, "x": null, "y": 0.695}, {"type": "position", "time": 25606, "x": null, "y": 0.695}, {"type": "position", "time": 25656, "x": null, "y": 0.695}, {"type": "position", "time": 25706, "x": null, "y": 0.695}, {"type": "position", "time": 25756, "x": null, "y": 0.695}, {"type": "position", "time": 25806, "x": null, "y": 0.695}, {"type": "position", "time": 25856, "x": null, "y": 0.695}, {"type": "position", "time": 25906, "x": null, "y": 0.695}, {"type": "position", "time": 25956, "x": null, "y": 0.695}, {"type": "position", "time": 26006, "x": null, "y": 0.695}, {"type": "position", "time": 26056, "x": null, "y": 0.695}, {"type": "position", "time": 26106, "x": null, "y": 0.695}, {"type": "position", "time": 26156, "x": null, "y": 0.695}, {"type": "position", "time": 26206, "x": null, "y": 0.695}, {"type": "position", "time": 26256, "x": null, "y": 0.695}, {"type": "position", "time": 26306, "x": null, "y": 0.695}, {"type": "position", "time": 26356, "x": null, "y": 0.695}, {"type": "position", "time": 26406, "x": null, "y": 0.695}, {"type": "position", "time": 26456, "x": null, "y": 0.695}, {"type": "position", "time": 26506, "x": null, "y": 0.695}, {"type": "position", "time": 26556, "x": null, "y": 0.695}, {"type": "position", "time": 26606, "x": null, "y": 0.695}, {"type": "position", "time": 26656, "x": null, "y": 0.695}, {"type": "position", "time": 26706, "x": null, "y": 0.695}, {"type": "position", "time": 26756, "x": null, "y": 0.695}, {"type": "position", "time": 26806, "x": null, "y": 0.695}, {"type": "position", "time": 26856, "x": null, "y": 0.695}, {"type": "position", "time": 26906, "x": null, "y": 0.695}, {"type": "position", "time": 26956, "x": null, "y": 0.695}, {"type": "position", "time": 27006, "x": null, "y": 0.695}, {"type": "position", "time": 27056, "x": null, "y": 0.695}, {"type": "position", "time": 27106, "x": null, "y": 0.695}, {"type": "position", "time": 27156, "x": null, "y": 0.695}, {"type": "position", "time": 27206, "x": null, "y": 0.695}, {"type": "position", "time": 27256, "x": null, "y": 0.695}, {"type": "position", "time": 27306, "x": null, "y": 0.695}, {"type": "position", "time": 27356, "x": null, "y": 0.695}, {"type": "position", "time": 27406, "x": null, "y": 0.695}, {"type": "position", "time": 27456, "x": null, "y": 0.695}, {"type": "position", "time": 27506, "x": null, "y": 0.695}, {"type": "position", "time": 27556, "x": null, "y": 0.695}, {"type": "position", "time": 27606, "x": null, "y": 0.695}, {"type": "position", "time": 27656, "x": null, "y": 0.695}, {"type": "position", "time": 27706, "x": null, "y": 0.695}, {"type": "position", "time": 27756, "x": null, "y": 0.695}, {"type": "position", "time": 27806, "x": null, "y": 0.69}, {"type": "position", "time": 27856, "x": null, "y": 0.69}, {"type": "position", "time": 27906, "x": null, "y": 0.69}, {"type": "position", "time": 27956, "x": null, "y": 0.69}, {"type": "position", "time": 28006, "x": null, "y": 0.69}, {"type": "position", "time": 28056, "x": null, "y": 0.69}, {"type": "position", "time": 28106, "x": null, "y": 0.69}, {"type": "position", "time": 28156, "x": null, "y": 0.69}, {"type": "position", "time": 28205, "x": null, "y": 0.69}, {"type": "position", "time": 28255, "x": null, "y": 0.69}, {"type": "position", "time": 28305, "x": null, "y": 0.685}, {"type": "position", "time": 28356, "x": null, "y": 0.68}, {"type": "position", "time": 28406, "x": null, "y": 0.6733333333333333}, {"type": "position", "time": 28456, "x": null, "y": 0.67}, {"type": "position", "time": 28506, "x": null, "y": 0.6683333333333333}, {"type": "position", "time": 28556, "x": null, "y": 0.6683333333333333}, {"type": "position", "time": 28606, "x": null, "y": 0.6683333333333333}, {"type": "position", "time": 28656, "x": null, "y": 0.6683333333333333}, {"type": "position", "time": 28707, "x": null, "y": 0.66}, {"type": "position", "time": 28757, "x": null, "y": 0.6416666666666667}, {"type": "position", "time": 28806, "x": null, "y": 0.63}, {"type": "position", "time": 28856, "x": null, "y": 0.625}, {"type": "position", "time": 28907, "x": null, "y": 0.6083333333333333}, {"type": "position", "time": 28957, "x": null, "y": 0.5866666666666667}, {"type": "position", "time": 29007, "x": null, "y": 0.565}, {"type": "position", "time": 29056, "x": null, "y": 0.565}, {"type": "position", "time": 29107, "x": null, "y": 0.565}, {"type": "position", "time": 29157, "x": null, "y": 0.565}, {"type": "position", "time": 29206, "x": null, "y": 0.565}, {"type": "position", "time": 29256, "x": null, "y": 0.5683333333333334}, {"type": "position", "time": 29306, "x": null, "y": 0.57}, {"type": "position", "time": 29356, "x": null, "y": 0.57}, {"type": "position", "time": 29406, "x": null, "y": 0.57}, {"type": "position", "time": 29456, "x": null, "y": 0.57}, {"type": "position", "time": 29506, "x": null, "y": 0.57}, {"type": "position", "time": 29556, "x": null, "y": 0.57}, {"type": "position", "time": 29606, "x": null, "y": 0.57}, {"type": "position", "time": 29656, "x": null, "y": 0.57}, {"type": "position", "time": 29706, "x": null, "y": 0.57}, {"type": "position", "time": 29756, "x": null, "y": 0.57}, {"type": "position", "time": 29806, "x": null, "y": 0.57}, {"type": "position", "time": 29856, "x": null, "y": 0.57}, {"type": "position", "time": 29906, "x": null, "y": 0.57}, {"type": "position", "time": 29956, "x": null, "y": 0.57}, {"type": "position", "time": 30006, "x": null, "y": 0.57}, {"type": "position", "time": 30056, "x": null, "y": 0.57}, {"type": "position", "time": 30106, "x": null, "y": 0.57}, {"type": "position", "time": 30156, "x": null, "y": 0.57}, {"type": "click", "time": 30164, "x": null, "y": 0.57}, {"type": "position", "time": 30206, "x": null, "y": 0.57}, {"type": "position", "time": 30256, "x": null, "y": 0.57}, {"type": "position", "time": 30306, "x": null, "y": 0.5716666666666667}, {"type": "position", "time": 30356, "x": null, "y": 0.5916666666666667}, {"type": "position", "time": 30406, "x": null, "y": 0.63}, {"type": "position", "time": 30456, "x": null, "y": 0.68}, {"type": "position", "time": 30506, "x": null, "y": 0.7183333333333334}, {"type": "position", "time": 30556, "x": null, "y": 0.7266666666666667}, {"type": "position", "time": 30606, "x": null, "y": 0.7283333333333334}, {"type": "position", "time": 30656, "x": null, "y": 0.7283333333333334}, {"type": "position", "time": 30706, "x": null, "y": 0.7283333333333334}, {"type": "position", "time": 30756, "x": null, "y": 0.7283333333333334}, {"type": "position", "time": 30806, "x": null, "y": 0.7283333333333334}, {"type": "position", "time": 30856, "x": null, "y": 0.7283333333333334}, {"type": "position", "time": 30906, "x": null, "y": 0.7283333333333334}, {"type": "position", "time": 30956, "x": null, "y": 0.7283333333333334}, {"type": "position", "time": 31006, "x": null, "y": 0.7283333333333334}, {"type": "position", "time": 31056, "x": null, "y": 0.7283333333333334}, {"type": "position", "time": 31106, "x": null, "y": 0.7283333333333334}, {"type": "position", "time": 31156, "x": null, "y": 0.7283333333333334}, {"type": "position", "time": 31206, "x": null, "y": 0.7283333333333334}, {"type": "position", "time": 31256, "x": null, "y": 0.7283333333333334}, {"type": "position", "time": 31306, "x": null, "y": 0.7283333333333334}, {"type": "position", "time": 31356, "x": null, "y": 0.7266666666666667}, {"type": "position", "time": 31406, "x": null, "y": 0.7266666666666667}, {"type": "position", "time": 31456, "x": null, "y": 0.7266666666666667}, {"type": "position", "time": 31506, "x": null, "y": 0.7233333333333334}, {"type": "position", "time": 31556, "x": null, "y": 0.72}, {"type": "position", "time": 31606, "x": null, "y": 0.72}, {"type": "position", "time": 31656, "x": null, "y": 0.7183333333333334}, {"type": "position", "time": 31706, "x": null, "y": 0.7183333333333334}, {"type": "position", "time": 31756, "x": null, "y": 0.7183333333333334}, {"type": "position", "time": 31806, "x": null, "y": 0.7183333333333334}, {"type": "position", "time": 31856, "x": null, "y": 0.7183333333333334}, {"type": "position", "time": 31906, "x": null, "y": 0.7183333333333334}, {"type": "position", "time": 31956, "x": null, "y": 0.7183333333333334}, {"type": "position", "time": 32006, "x": null, "y": 0.7183333333333334}, {"type": "position", "time": 32056, "x": null, "y": 0.7166666666666667}, {"type": "position", "time": 32106, "x": null, "y": 0.7116666666666667}, {"type": "position", "time": 32156, "x": null, "y": 0.7116666666666667}, {"type": "position", "time": 32206, "x": null, "y": 0.7116666666666667}, {"type": "position", "time": 32256, "x": null, "y": 0.7116666666666667}, {"type": "position", "time": 32306, "x": null, "y": 0.7116666666666667}, {"type": "position", "time": 32356, "x": null, "y": 0.7116666666666667}, {"type": "position", "time": 32406, "x": null, "y": 0.7116666666666667}, {"type": "position", "time": 32456, "x": null, "y": 0.7116666666666667}, {"type": "position", "time": 32506, "x": null, "y": 0.7116666666666667}, {"type": "position", "time": 32556, "x": null, "y": 0.7116666666666667}, {"type": "position", "time": 32606, "x": null, "y": 0.7116666666666667}, {"type": "position", "time": 32656, "x": null, "y": 0.7116666666666667}, {"type": "position", "time": 32706, "x": null, "y": 0.7083333333333334}, {"type": "position", "time": 32756, "x": null, "y": 0.7083333333333334}, {"type": "position", "time": 32806, "x": null, "y": 0.7083333333333334}, {"type": "position", "time": 32856, "x": null, "y": 0.7083333333333334}, {"type": "position", "time": 32906, "x": null, "y": 0.7083333333333334}, {"type": "position", "time": 32956, "x": null, "y": 0.7083333333333334}, {"type": "position", "time": 33006, "x": null, "y": 0.7083333333333334}, {"type": "position", "time": 33056, "x": null, "y": 0.7083333333333334}, {"type": "position", "time": 33106, "x": null, "y": 0.7083333333333334}, {"type": "position", "time": 33156, "x": null, "y": 0.7083333333333334}, {"type": "position", "time": 33206, "x": null, "y": 0.7083333333333334}, {"type": "position", "time": 33256, "x": null, "y": 0.7083333333333334}, {"type": "position", "time": 33306, "x": null, "y": 0.7083333333333334}, {"type": "position", "time": 33356, "x": null, "y": 0.7083333333333334}, {"type": "position", "time": 33406, "x": null, "y": 0.7083333333333334}, {"type": "position", "time": 33456, "x": null, "y": 0.7083333333333334}, {"type": "position", "time": 33506, "x": null, "y": 0.7083333333333334}, {"type": "position", "time": 33556, "x": null, "y": 0.7083333333333334}, {"type": "position", "time": 33606, "x": null, "y": 0.7083333333333334}, {"type": "position", "time": 33656, "x": null, "y": 0.7083333333333334}, {"type": "position", "time": 33706, "x": null, "y": 0.7083333333333334}, {"type": "position", "time": 33756, "x": null, "y": 0.7083333333333334}, {"type": "position", "time": 33806, "x": null, "y": 0.7083333333333334}, {"type": "position", "time": 33856, "x": null, "y": 0.7083333333333334}, {"type": "position", "time": 33906, "x": null, "y": 0.7083333333333334}, {"type": "position", "time": 33956, "x": null, "y": 0.7083333333333334}, {"type": "position", "time": 34006, "x": null, "y": 0.7083333333333334}, {"type": "position", "time": 34056, "x": null, "y": 0.7083333333333334}, {"type": "position", "time": 34106, "x": null, "y": 0.7083333333333334}, {"type": "position", "time": 34156, "x": null, "y": 0.7083333333333334}, {"type": "position", "time": 34206, "x": null, "y": 0.7083333333333334}, {"type": "position", "time": 34256, "x": null, "y": 0.7083333333333334}, {"type": "position", "time": 34306, "x": null, "y": 0.7016666666666667}, {"type": "position", "time": 34356, "x": null, "y": 0.7016666666666667}, {"type": "position", "time": 34406, "x": null, "y": 0.7016666666666667}, {"type": "position", "time": 34456, "x": null, "y": 0.7016666666666667}, {"type": "position", "time": 34506, "x": null, "y": 0.7016666666666667}, {"type": "position", "time": 34556, "x": null, "y": 0.7016666666666667}, {"type": "position", "time": 34606, "x": null, "y": 0.7016666666666667}, {"type": "position", "time": 34656, "x": null, "y": 0.7016666666666667}, {"type": "position", "time": 34706, "x": null, "y": 0.7016666666666667}, {"type": "position", "time": 34756, "x": null, "y": 0.7016666666666667}, {"type": "position", "time": 34806, "x": null, "y": 0.7016666666666667}, {"type": "position", "time": 34856, "x": null, "y": 0.7016666666666667}, {"type": "position", "time": 34906, "x": null, "y": 0.7016666666666667}, {"type": "position", "time": 34956, "x": null, "y": 0.7016666666666667}, {"type": "position", "time": 35006, "x": null, "y": 0.7016666666666667}, {"type": "position", "time": 35056, "x": null, "y": 0.7016666666666667}, {"type": "position", "time": 35106, "x": null, "y": 0.7016666666666667}, {"type": "position", "time": 35156, "x": null, "y": 0.7016666666666667}, {"type": "position", "time": 35206, "x": null, "y": 0.7016666666666667}, {"type": "position", "time": 35256, "x": null, "y": 0.7016666666666667}, {"type": "position", "time": 35306, "x": null, "y": 0.7016666666666667}, {"type": "position", "time": 35356, "x": null, "y": 0.7016666666666667}, {"type": "position", "time": 35406, "x": null, "y": 0.7016666666666667}, {"type": "position", "time": 35456, "x": null, "y": 0.7016666666666667}, {"type": "position", "time": 35506, "x": null, "y": 0.7016666666666667}, {"type": "position", "time": 35556, "x": null, "y": 0.7016666666666667}, {"type": "position", "time": 35606, "x": null, "y": 0.7016666666666667}, {"type": "position", "time": 35656, "x": null, "y": 0.7016666666666667}, {"type": "position", "time": 35706, "x": null, "y": 0.7016666666666667}, {"type": "position", "time": 35756, "x": null, "y": 0.7016666666666667}, {"type": "position", "time": 35806, "x": null, "y": 0.7016666666666667}, {"type": "position", "time": 35856, "x": null, "y": 0.7016666666666667}, {"type": "position", "time": 35906, "x": null, "y": 0.7016666666666667}, {"type": "position", "time": 35956, "x": null, "y": 0.7016666666666667}, {"type": "position", "time": 36006, "x": null, "y": 0.7016666666666667}, {"type": "position", "time": 36056, "x": null, "y": 0.7016666666666667}, {"type": "position", "time": 36106, "x": null, "y": 0.7016666666666667}, {"type": "position", "time": 36156, "x": null, "y": 0.7016666666666667}, {"type": "position", "time": 36206, "x": null, "y": 0.7016666666666667}, {"type": "position", "time": 36256, "x": null, "y": 0.7016666666666667}, {"type": "position", "time": 36306, "x": null, "y": 0.7016666666666667}, {"type": "position", "time": 36356, "x": null, "y": 0.7016666666666667}, {"type": "position", "time": 36406, "x": null, "y": 0.7016666666666667}, {"type": "position", "time": 36456, "x": null, "y": 0.7016666666666667}, {"type": "position", "time": 36506, "x": null, "y": 0.7016666666666667}, {"type": "position", "time": 36556, "x": null, "y": 0.7016666666666667}, {"type": "position", "time": 36606, "x": null, "y": 0.7016666666666667}, {"type": "position", "time": 36656, "x": null, "y": 0.7016666666666667}, {"type": "position", "time": 36706, "x": null, "y": 0.7016666666666667}, {"type": "position", "time": 36756, "x": null, "y": 0.7016666666666667}, {"type": "position", "time": 36806, "x": null, "y": 0.7016666666666667}, {"type": "position", "time": 36856, "x": null, "y": 0.7016666666666667}, {"type": "position", "time": 36906, "x": null, "y": 0.7016666666666667}, {"type": "position", "time": 36956, "x": null, "y": 0.7016666666666667}, {"type": "position", "time": 37006, "x": null, "y": 0.7016666666666667}, {"type": "position", "time": 37056, "x": null, "y": 0.7016666666666667}, {"type": "position", "time": 37106, "x": null, "y": 0.7016666666666667}, {"type": "position", "time": 37156, "x": null, "y": 0.7016666666666667}, {"type": "position", "time": 37206, "x": null, "y": 0.7016666666666667}, {"type": "position", "time": 37256, "x": null, "y": 0.7016666666666667}, {"type": "position", "time": 37306, "x": null, "y": 0.7016666666666667}, {"type": "position", "time": 37356, "x": null, "y": 0.7016666666666667}, {"type": "position", "time": 37406, "x": null, "y": 0.7016666666666667}, {"type": "position", "time": 37456, "x": null, "y": 0.7016666666666667}, {"type": "position", "time": 37506, "x": null, "y": 0.7016666666666667}, {"type": "position", "time": 37556, "x": null, "y": 0.7016666666666667}, {"type": "position", "time": 37606, "x": null, "y": 0.7016666666666667}, {"type": "position", "time": 37656, "x": null, "y": 0.7016666666666667}, {"type": "position", "time": 37706, "x": null, "y": 0.7016666666666667}, {"type": "position", "time": 37756, "x": null, "y": 0.7016666666666667}, {"type": "position", "time": 37806, "x": null, "y": 0.7016666666666667}, {"type": "position", "time": 37856, "x": null, "y": 0.7016666666666667}, {"type": "position", "time": 37906, "x": null, "y": 0.7016666666666667}, {"type": "position", "time": 37956, "x": null, "y": 0.7016666666666667}, {"type": "position", "time": 38006, "x": null, "y": 0.7016666666666667}, {"type": "position", "time": 38057, "x": null, "y": 0.7016666666666667}, {"type": "position", "time": 38107, "x": null, "y": 0.7016666666666667}, {"type": "position", "time": 38157, "x": null, "y": 0.7016666666666667}, {"type": "position", "time": 38206, "x": null, "y": 0.7016666666666667}, {"type": "position", "time": 38256, "x": null, "y": 0.7016666666666667}, {"type": "position", "time": 38306, "x": null, "y": 0.7016666666666667}, {"type": "position", "time": 38356, "x": null, "y": 0.7016666666666667}, {"type": "position", "time": 38406, "x": null, "y": 0.7016666666666667}, {"type": "position", "time": 38456, "x": null, "y": 0.7016666666666667}, {"type": "position", "time": 38506, "x": null, "y": 0.7016666666666667}, {"type": "position", "time": 38556, "x": null, "y": 0.7016666666666667}, {"type": "position", "time": 38606, "x": null, "y": 0.7016666666666667}, {"type": "position", "time": 38656, "x": null, "y": 0.7016666666666667}, {"type": "position", "time": 38706, "x": null, "y": 0.7016666666666667}, {"type": "position", "time": 38756, "x": null, "y": 0.7016666666666667}, {"type": "position", "time": 38806, "x": null, "y": 0.7016666666666667}, {"type": "position", "time": 38856, "x": null, "y": 0.7016666666666667}, {"type": "position", "time": 38906, "x": null, "y": 0.7016666666666667}, {"type": "position", "time": 38956, "x": null, "y": 0.7016666666666667}, {"type": "position", "time": 39006, "x": null, "y": 0.7016666666666667}, {"type": "position", "time": 39056, "x": null, "y": 0.7016666666666667}, {"type": "position", "time": 39106, "x": null, "y": 0.7016666666666667}, {"type": "position", "time": 39156, "x": null, "y": 0.7016666666666667}, {"type": "position", "time": 39206, "x": null, "y": 0.7016666666666667}, {"type": "position", "time": 39256, "x": null, "y": 0.7016666666666667}, {"type": "position", "time": 39306, "x": null, "y": 0.7016666666666667}, {"type": "position", "time": 39356, "x": null, "y": 0.7016666666666667}, {"type": "position", "time": 39406, "x": null, "y": 0.7016666666666667}, {"type": "position", "time": 39456, "x": null, "y": 0.7016666666666667}, {"type": "position", "time": 39506, "x": null, "y": 0.7016666666666667}, {"type": "position", "time": 39556, "x": null, "y": 0.7016666666666667}, {"type": "position", "time": 39606, "x": null, "y": 0.7016666666666667}, {"type": "position", "time": 39656, "x": null, "y": 0.7016666666666667}, {"type": "position", "time": 39706, "x": null, "y": 0.7016666666666667}, {"type": "position", "time": 39756, "x": null, "y": 0.7016666666666667}, {"type": "position", "time": 39806, "x": null, "y": 0.7016666666666667}, {"type": "position", "time": 39856, "x": null, "y": 0.7016666666666667}, {"type": "position", "time": 39906, "x": null, "y": 0.7016666666666667}, {"type": "position", "time": 39956, "x": null, "y": 0.7016666666666667}, {"type": "position", "time": 40006, "x": null, "y": 0.7016666666666667}, {"type": "position", "time": 40056, "x": null, "y": 0.7016666666666667}, {"type": "position", "time": 40106, "x": null, "y": 0.7016666666666667}, {"type": "position", "time": 40156, "x": null, "y": 0.7016666666666667}, {"type": "position", "time": 40206, "x": null, "y": 0.7016666666666667}, {"type": "position", "time": 40256, "x": null, "y": 0.7016666666666667}, {"type": "position", "time": 40306, "x": null, "y": 0.7016666666666667}, {"type": "position", "time": 40356, "x": null, "y": 0.7016666666666667}, {"type": "position", "time": 40406, "x": null, "y": 0.7016666666666667}, {"type": "position", "time": 40456, "x": null, "y": 0.7016666666666667}, {"type": "position", "time": 40506, "x": null, "y": 0.7016666666666667}, {"type": "position", "time": 40556, "x": null, "y": 0.7016666666666667}, {"type": "position", "time": 40606, "x": null, "y": 0.7016666666666667}, {"type": "position", "time": 40656, "x": null, "y": 0.7016666666666667}, {"type": "position", "time": 40706, "x": null, "y": 0.7016666666666667}, {"type": "position", "time": 40756, "x": null, "y": 0.7016666666666667}, {"type": "position", "time": 40806, "x": null, "y": 0.7016666666666667}, {"type": "position", "time": 40856, "x": null, "y": 0.7016666666666667}, {"type": "keyup", "time": 40891, "key": "\u0010", "keyCode": 16}, {"type": "position", "time": 40906, "x": null, "y": 0.7016666666666667}, {"type": "position", "time": 40956, "x": null, "y": 0.7016666666666667}, {"type": "keyup", "time": 40994, "key": "W", "keyCode": 87}, {"type": "position", "time": 41006, "x": null, "y": 0.7016666666666667}, {"type": "position", "time": 41056, "x": null, "y": 0.7016666666666667}, {"type": "position", "time": 41107, "x": null, "y": 0.7016666666666667}, {"type": "position", "time": 41157, "x": null, "y": 0.7016666666666667}, {"type": "position", "time": 41207, "x": null, "y": 0.7016666666666667}, {"type": "position", "time": 41256, "x": null, "y": 0.7016666666666667}, {"type": "keyup", "time": 41259, "key": "A", "keyCode": 65}, {"type": "position", "time": 41307, "x": null, "y": 0.7016666666666667}, {"type": "position", "time": 41356, "x": null, "y": 0.7016666666666667}, {"type": "keyup", "time": 41371, "key": "S", "keyCode": 83}, {"type": "position", "time": 41406, "x": null, "y": 0.7016666666666667}, {"type": "position", "time": 41457, "x": null, "y": 0.7016666666666667}, {"type": "keyup", "time": 41467, "key": " ", "keyCode": 32}, {"type": "position", "time": 41506, "x": null, "y": 0.7016666666666667}, {"type": "position", "time": 41556, "x": null, "y": 0.7016666666666667}, {"type": "position", "time": 41606, "x": null, "y": 0.7016666666666667}, {"type": "position", "time": 41656, "x": null, "y": 0.7016666666666667}, {"type": "position", "time": 41706, "x": null, "y": 0.7016666666666667}, {"type": "position", "time": 41756, "x": null, "y": 0.7016666666666667}, {"type": "position", "time": 41806, "x": null, "y": 0.7016666666666667}, {"type": "position", "time": 41856, "x": null, "y": 0.7016666666666667}, {"type": "keyup", "time": 41859, "key": "R", "keyCode": 82}, {"type": "position", "time": 41906, "x": null, "y": 0.7016666666666667}, {"type": "position", "time": 41956, "x": null, "y": 0.7016666666666667}, {"type": "keyup", "time": 41963, "key": "E", "keyCode": 69}, {"type": "position", "time": 42006, "x": null, "y": 0.7016666666666667}, {"type": "position", "time": 42056, "x": null, "y": 0.7016666666666667}, {"type": "position", "time": 42106, "x": null, "y": 0.7016666666666667}, {"type": "keyup", "time": 42147, "key": "A", "keyCode": 65}, {"type": "position", "time": 42156, "x": null, "y": 0.7016666666666667}, {"type": "position", "time": 42206, "x": null, "y": 0.7016666666666667}, {"type": "position", "time": 42256, "x": null, "y": 0.7016666666666667}, {"type": "keyup", "time": 42283, "key": "D", "keyCode": 68}, {"type": "position", "time": 42306, "x": null, "y": 0.7016666666666667}, {"type": "position", "time": 42356, "x": null, "y": 0.7016666666666667}, {"type": "position", "time": 42406, "x": null, "y": 0.7016666666666667}, {"type": "keyup", "time": 42435, "key": "I", "keyCode": 73}, {"type": "position", "time": 42456, "x": null, "y": 0.7016666666666667}, {"type": "position", "time": 42506, "x": null, "y": 0.7016666666666667}, {"type": "keyup", "time": 42515, "key": "N", "keyCode": 78}, {"type": "position", "time": 42556, "x": null, "y": 0.7016666666666667}, {"type": "position", "time": 42606, "x": null, "y": 0.7016666666666667}, {"type": "keyup", "time": 42619, "key": "G", "keyCode": 71}, {"type": "position", "time": 42656, "x": null, "y": 0.7016666666666667}, {"type": "position", "time": 42706, "x": null, "y": 0.7016666666666667}, {"type": "position", "time": 42756, "x": null, "y": 0.7016666666666667}, {"type": "keyup", "time": 42803, "key": " ", "keyCode": 32}, {"type": "position", "time": 42806, "x": null, "y": 0.7016666666666667}, {"type": "position", "time": 42856, "x": null, "y": 0.7016666666666667}, {"type": "position", "time": 42906, "x": null, "y": 0.7016666666666667}, {"type": "position", "time": 42956, "x": null, "y": 0.7016666666666667}, {"type": "position", "time": 43006, "x": null, "y": 0.7016666666666667}, {"type": "position", "time": 43056, "x": null, "y": 0.7016666666666667}, {"type": "position", "time": 43106, "x": null, "y": 0.7016666666666667}, {"type": "position", "time": 43156, "x": null, "y": 0.7016666666666667}, {"type": "position", "time": 43206, "x": null, "y": 0.7016666666666667}, {"type": "position", "time": 43256, "x": null, "y": 0.7016666666666667}, {"type": "position", "time": 43306, "x": null, "y": 0.7016666666666667}, {"type": "position", "time": 43356, "x": null, "y": 0.7016666666666667}, {"type": "position", "time": 43406, "x": null, "y": 0.7016666666666667}, {"type": "position", "time": 43456, "x": null, "y": 0.7016666666666667}, {"type": "position", "time": 43506, "x": null, "y": 0.7016666666666667}, {"type": "position", "time": 43556, "x": null, "y": 0.7016666666666667}, {"type": "position", "time": 43606, "x": null, "y": 0.7016666666666667}, {"type": "position", "time": 43656, "x": null, "y": 0.7016666666666667}, {"type": "position", "time": 43706, "x": null, "y": 0.7016666666666667}, {"type": "position", "time": 43756, "x": null, "y": 0.7016666666666667}, {"type": "keyup", "time": 43787, "key": "S", "keyCode": 83}, {"type": "position", "time": 43806, "x": null, "y": 0.7016666666666667}, {"type": "position", "time": 43856, "x": null, "y": 0.7016666666666667}, {"type": "position", "time": 43906, "x": null, "y": 0.7016666666666667}, {"type": "position", "time": 43956, "x": null, "y": 0.7016666666666667}, {"type": "keyup", "time": 43986, "key": "I", "keyCode": 73}, {"type": "keyup", "time": 43987, "key": "M", "keyCode": 77}, {"type": "position", "time": 44006, "x": null, "y": 0.7016666666666667}, {"type": "position", "time": 44056, "x": null, "y": 0.7016666666666667}, {"type": "position", "time": 44106, "x": null, "y": 0.7016666666666667}, {"type": "position", "time": 44156, "x": null, "y": 0.7016666666666667}, {"type": "keyup", "time": 44171, "key": "P", "keyCode": 80}, {"type": "position", "time": 44206, "x": null, "y": 0.7016666666666667}, {"type": "position", "time": 44257, "x": null, "y": 0.7016666666666667}, {"type": "position", "time": 44307, "x": null, "y": 0.7016666666666667}, {"type": "position", "time": 44356, "x": null, "y": 0.7016666666666667}, {"type": "keyup", "time": 44363, "key": "L", "keyCode": 76}, {"type": "position", "time": 44406, "x": null, "y": 0.7016666666666667}, {"type": "position", "time": 44456, "x": null, "y": 0.7016666666666667}, {"type": "keyup", "time": 44467, "key": "E", "keyCode": 69}, {"type": "position", "time": 44506, "x": null, "y": 0.7016666666666667}, {"type": "position", "time": 44556, "x": null, "y": 0.7016666666666667}, {"type": "position", "time": 44606, "x": null, "y": 0.7016666666666667}, {"type": "keyup", "time": 44611, "key": " ", "keyCode": 32}, {"type": "position", "time": 44656, "x": null, "y": 0.7016666666666667}, {"type": "position", "time": 44706, "x": null, "y": 0.7016666666666667}, {"type": "position", "time": 44757, "x": null, "y": 0.7016666666666667}, {"type": "keyup", "time": 44803, "key": "W", "keyCode": 87}, {"type": "position", "time": 44806, "x": null, "y": 0.7016666666666667}, {"type": "position", "time": 44856, "x": null, "y": 0.7016666666666667}, {"type": "keyup", "time": 44883, "key": "O", "keyCode": 79}, {"type": "position", "time": 44906, "x": null, "y": 0.7016666666666667}, {"type": "position", "time": 44956, "x": null, "y": 0.7016666666666667}, {"type": "position", "time": 45006, "x": null, "y": 0.7016666666666667}, {"type": "position", "time": 45056, "x": null, "y": 0.7016666666666667}, {"type": "keyup", "time": 45075, "key": "R", "keyCode": 82}, {"type": "position", "time": 45106, "x": null, "y": 0.7016666666666667}, {"type": "position", "time": 45156, "x": null, "y": 0.7016666666666667}, {"type": "position", "time": 45206, "x": null, "y": 0.7016666666666667}, {"type": "position", "time": 45256, "x": null, "y": 0.7016666666666667}, {"type": "position", "time": 45306, "x": null, "y": 0.7016666666666667}, {"type": "keyup", "time": 45355, "key": "D", "keyCode": 68}, {"type": "position", "time": 45356, "x": null, "y": 0.7016666666666667}, {"type": "position", "time": 45406, "x": null, "y": 0.7016666666666667}, {"type": "position", "time": 45456, "x": null, "y": 0.7016666666666667}, {"type": "keyup", "time": 45483, "key": "S", "keyCode": 83}, {"type": "position", "time": 45506, "x": null, "y": 0.7016666666666667}, {"type": "position", "time": 45556, "x": null, "y": 0.7016666666666667}, {"type": "keyup", "time": 45595, "key": "\u00be", "keyCode": 190}, {"type": "position", "time": 45606, "x": null, "y": 0.7016666666666667}, {"type": "position", "time": 45656, "x": null, "y": 0.7016666666666667}, {"type": "position", "time": 45706, "x": null, "y": 0.7016666666666667}, {"type": "position", "time": 45756, "x": null, "y": 0.7016666666666667}, {"type": "position", "time": 45806, "x": null, "y": 0.7016666666666667}, {"type": "position", "time": 45856, "x": null, "y": 0.7016666666666667}, {"type": "position", "time": 45906, "x": null, "y": 0.7016666666666667}, {"type": "position", "time": 45956, "x": null, "y": 0.7016666666666667}, {"type": "position", "time": 46006, "x": null, "y": 0.7016666666666667}, {"type": "position", "time": 46056, "x": null, "y": 0.7016666666666667}, {"type": "position", "time": 46106, "x": null, "y": 0.7016666666666667}, {"type": "position", "time": 46156, "x": null, "y": 0.7016666666666667}, {"type": "position", "time": 46206, "x": null, "y": 0.7016666666666667}, {"type": "position", "time": 46256, "x": null, "y": 0.7016666666666667}, {"type": "position", "time": 46306, "x": null, "y": 0.7016666666666667}, {"type": "position", "time": 46356, "x": null, "y": 0.7016666666666667}, {"type": "position", "time": 46406, "x": null, "y": 0.7}, {"type": "position", "time": 46456, "x": null, "y": 0.6983333333333334}, {"type": "position", "time": 46506, "x": null, "y": 0.665}, {"type": "position", "time": 46556, "x": null, "y": 0.665}, {"type": "position", "time": 46606, "x": null, "y": 0.6866666666666666}, {"type": "position", "time": 46657, "x": null, "y": 0.6866666666666666}, {"type": "position", "time": 46706, "x": null, "y": 0.68}, {"type": "position", "time": 46757, "x": null, "y": 0.68}, {"type": "position", "time": 46807, "x": null, "y": 0.6883333333333334}, {"type": "position", "time": 46856, "x": null, "y": 0.6883333333333334}, {"type": "position", "time": 46906, "x": null, "y": 0.6883333333333334}, {"type": "position", "time": 46956, "x": null, "y": 0.6883333333333334}, {"type": "position", "time": 47006, "x": null, "y": 0.6883333333333334}, {"type": "click", "time": 47012, "x": null, "y": 0.6883333333333334}, {"type": "position", "time": 47056, "x": null, "y": 0.6883333333333334}, {"type": "position", "time": 47106, "x": null, "y": 0.6883333333333334}, {"type": "position", "time": 47156, "x": null, "y": 0.6883333333333334}, {"type": "position", "time": 47206, "x": null, "y": 0.6883333333333334}, {"type": "position", "time": 47256, "x": null, "y": 0.6883333333333334}, {"type": "position", "time": 47306, "x": null, "y": 0.6883333333333334}, {"type": "position", "time": 47356, "x": null, "y": 0.6883333333333334}, {"type": "position", "time": 47406, "x": null, "y": 0.6883333333333334}, {"type": "position", "time": 47456, "x": null, "y": 0.6883333333333334}, {"type": "position", "time": 47506, "x": null, "y": 0.6883333333333334}, {"type": "position", "time": 47556, "x": null, "y": 0.69}, {"type": "position", "time": 47607, "x": null, "y": 0.695}, {"type": "position", "time": 47657, "x": null, "y": 0.7083333333333334}, {"type": "position", "time": 47707, "x": null, "y": 0.7133333333333334}, {"type": "position", "time": 47757, "x": null, "y": 0.72}, {"type": "position", "time": 47806, "x": null, "y": 0.7216666666666667}, {"type": "position", "time": 47856, "x": null, "y": 0.7216666666666667}, {"type": "position", "time": 47906, "x": null, "y": 0.7216666666666667}, {"type": "position", "time": 47956, "x": null, "y": 0.7233333333333334}, {"type": "position", "time": 48006, "x": null, "y": 0.7283333333333334}, {"type": "position", "time": 48056, "x": null, "y": 0.73}, {"type": "position", "time": 48106, "x": null, "y": 0.73}, {"type": "position", "time": 48157, "x": null, "y": 0.7333333333333333}, {"type": "position", "time": 48206, "x": null, "y": 0.7366666666666667}, {"type": "position", "time": 48257, "x": null, "y": 0.7366666666666667}, {"type": "position", "time": 48306, "x": null, "y": 0.7383333333333333}, {"type": "position", "time": 48356, "x": null, "y": 0.7383333333333333}, {"type": "position", "time": 48406, "x": null, "y": 0.7383333333333333}, {"type": "position", "time": 48456, "x": null, "y": 0.7383333333333333}, {"type": "position", "time": 48506, "x": null, "y": 0.7383333333333333}, {"type": "position", "time": 48556, "x": null, "y": 0.7383333333333333}, {"type": "position", "time": 48606, "x": null, "y": 0.7383333333333333}, {"type": "position", "time": 48656, "x": null, "y": 0.7383333333333333}, {"type": "position", "time": 48706, "x": null, "y": 0.7383333333333333}, {"type": "position", "time": 48756, "x": null, "y": 0.7383333333333333}, {"type": "position", "time": 48806, "x": null, "y": 0.7383333333333333}, {"type": "position", "time": 48856, "x": null, "y": 0.7383333333333333}, {"type": "position", "time": 48906, "x": null, "y": 0.7366666666666667}, {"type": "position", "time": 48956, "x": null, "y": 0.7383333333333333}, {"type": "position", "time": 49006, "x": null, "y": 0.7383333333333333}, {"type": "position", "time": 49056, "x": null, "y": 0.7383333333333333}, {"type": "position", "time": 49106, "x": null, "y": 0.7383333333333333}, {"type": "position", "time": 49156, "x": null, "y": 0.7383333333333333}, {"type": "position", "time": 49206, "x": null, "y": 0.7383333333333333}, {"type": "position", "time": 49256, "x": null, "y": 0.7383333333333333}, {"type": "click", "time": 49264, "x": null, "y": 0.7383333333333333}, {"type": "position", "time": 49306, "x": null, "y": 0.7383333333333333}, {"type": "position", "time": 49356, "x": null, "y": 0.7383333333333333}, {"type": "position", "time": 49408, "x": null, "y": 0.7366666666666667}, {"type": "position", "time": 49456, "x": null, "y": 0.7333333333333333}, {"type": "slider", "time": 49471, "value": 0.4}, {"type": "position", "time": 49506, "x": null, "y": 0.7316666666666667}, {"type": "position", "time": 49559, "x": null, "y": 0.7266666666666667}, {"type": "click", "time": 49563, "x": null, "y": 0.7266666666666667}, {"type": "position", "time": 49606, "x": null, "y": 0.72}, {"type": "position", "time": 49656, "x": null, "y": 0.715}, {"type": "position", "time": 49706, "x": null, "y": 0.715}, {"type": "position", "time": 49756, "x": null, "y": 0.715}, {"type": "slider", "time": 49792, "value": 0.36}, {"type": "position", "time": 49806, "x": null, "y": 0.715}, {"type": "position", "time": 49856, "x": null, "y": 0.715}, {"type": "position", "time": 49906, "x": null, "y": 0.715}, {"type": "position", "time": 49956, "x": null, "y": 0.715}, {"type": "click", "time": 50002, "x": null, "y": 0.715}, {"type": "position", "time": 50006, "x": null, "y": 0.715}, {"type": "position", "time": 50056, "x": null, "y": 0.7133333333333334}, {"type": "position", "time": 50106, "x": null, "y": 0.715}, {"type": "position", "time": 50156, "x": null, "y": 0.74}, {"type": "position", "time": 50206, "x": null, "y": 0.78}, {"type": "position", "time": 50256, "x": null, "y": 0.7816666666666666}, {"type": "position", "time": 50306, "x": null, "y": 0.7816666666666666}, {"type": "position", "time": 50356, "x": null, "y": 0.78}, {"type": "position", "time": 50406, "x": null, "y": 0.775}, {"type": "position", "time": 50456, "x": null, "y": 0.7716666666666666}, {"type": "position", "time": 50507, "x": null, "y": 0.7683333333333333}, {"type": "position", "time": 50556, "x": null, "y": 0.765}, {"type": "position", "time": 50606, "x": null, "y": 0.765}, {"type": "position", "time": 50656, "x": null, "y": 0.765}, {"type": "position", "time": 50706, "x": null, "y": 0.7616666666666667}, {"type": "position", "time": 50756, "x": null, "y": 0.7533333333333333}, {"type": "position", "time": 50806, "x": null, "y": 0.74}, {"type": "position", "time": 50856, "x": null, "y": 0.72}, {"type": "position", "time": 50906, "x": null, "y": 0.7166666666666667}, {"type": "position", "time": 50956, "x": null, "y": 0.7166666666666667}, {"type": "position", "time": 51006, "x": null, "y": 0.715}, {"type": "slider", "time": 51016, "value": 0.37}, {"type": "slider", "time": 51057, "value": 0.38}, {"type": "position", "time": 51057, "x": null, "y": 0.715}, {"type": "slider", "time": 51089, "value": 0.39}, {"type": "position", "time": 51106, "x": null, "y": 0.715}, {"type": "position", "time": 51156, "x": null, "y": 0.715}, {"type": "position", "time": 51206, "x": null, "y": 0.7183333333333334}, {"type": "position", "time": 51256, "x": null, "y": 0.7183333333333334}, {"type": "position", "time": 51306, "x": null, "y": 0.7316666666666667}, {"type": "position", "time": 51356, "x": null, "y": 0.7533333333333333}, {"type": "position", "time": 51407, "x": null, "y": 0.7816666666666666}, {"type": "position", "time": 51457, "x": null, "y": 0.8133333333333334}, {"type": "position", "time": 51507, "x": null, "y": 0.8166666666666667}, {"type": "position", "time": 51556, "x": null, "y": 0.82}, {"type": "position", "time": 51607, "x": null, "y": 0.8216666666666667}, {"type": "position", "time": 51656, "x": null, "y": 0.8216666666666667}, {"type": "position", "time": 51707, "x": null, "y": 0.8216666666666667}, {"type": "position", "time": 51756, "x": null, "y": 0.8216666666666667}, {"type": "position", "time": 51807, "x": null, "y": 0.8216666666666667}, {"type": "position", "time": 51856, "x": null, "y": 0.8216666666666667}, {"type": "click", "time": 51878, "x": null, "y": 0.8216666666666667}, {"type": "position", "time": 51907, "x": null, "y": 0.8216666666666667}, {"type": "position", "time": 51956, "x": null, "y": 0.8216666666666667}, {"type": "position", "time": 52006, "x": null, "y": 0.8216666666666667}, {"type": "position", "time": 52056, "x": null, "y": 0.8233333333333334}, {"type": "position", "time": 52106, "x": null, "y": 0.8233333333333334}, {"type": "position", "time": 52156, "x": null, "y": 0.8233333333333334}, {"type": "position", "time": 52206, "x": null, "y": 0.8233333333333334}, {"type": "position", "time": 52256, "x": null, "y": 0.8233333333333334}, {"type": "position", "time": 52306, "x": null, "y": 0.8233333333333334}, {"type": "position", "time": 52356, "x": null, "y": 0.8233333333333334}, {"type": "position", "time": 52406, "x": null, "y": 0.8233333333333334}, {"type": "position", "time": 52456, "x": null, "y": 0.8233333333333334}, {"type": "position", "time": 52506, "x": null, "y": 0.8233333333333334}, {"type": "position", "time": 52556, "x": null, "y": 0.8233333333333334}, {"type": "position", "time": 52606, "x": null, "y": 0.8233333333333334}, {"type": "position", "time": 52656, "x": null, "y": 0.8233333333333334}, {"type": "position", "time": 52706, "x": null, "y": 0.815}, {"type": "position", "time": 52756, "x": null, "y": 0.8133333333333334}, {"type": "position", "time": 52806, "x": null, "y": 0.8033333333333333}, {"type": "position", "time": 52856, "x": null, "y": 0.7966666666666666}, {"type": "position", "time": 52906, "x": null, "y": 0.7883333333333333}, {"type": "position", "time": 52956, "x": null, "y": 0.78}, {"type": "position", "time": 53006, "x": null, "y": 0.7616666666666667}, {"type": "position", "time": 53056, "x": null, "y": 0.75}, {"type": "position", "time": 53106, "x": null, "y": 0.735}, {"type": "position", "time": 53156, "x": null, "y": 0.71}, {"type": "position", "time": 53206, "x": null, "y": 0.6916666666666667}, {"type": "position", "time": 53256, "x": null, "y": 0.6716666666666666}, {"type": "position", "time": 53306, "x": null, "y": 0.6666666666666666}, {"type": "position", "time": 53356, "x": null, "y": 0.6633333333333333}, {"type": "position", "time": 53406, "x": null, "y": 0.6583333333333333}, {"type": "position", "time": 53456, "x": null, "y": 0.6516666666666666}, {"type": "position", "time": 53506, "x": null, "y": 0.6483333333333333}, {"type": "position", "time": 53556, "x": null, "y": 0.6466666666666666}, {"type": "position", "time": 53606, "x": null, "y": 0.64}, {"type": "position", "time": 53656, "x": null, "y": 0.6316666666666667}, {"type": "position", "time": 53706, "x": null, "y": 0.62}, {"type": "position", "time": 53756, "x": null, "y": 0.6133333333333333}, {"type": "position", "time": 53806, "x": null, "y": 0.6116666666666667}, {"type": "position", "time": 53856, "x": null, "y": 0.6116666666666667}, {"type": "position", "time": 53906, "x": null, "y": 0.6116666666666667}, {"type": "position", "time": 53956, "x": null, "y": 0.6116666666666667}, {"type": "position", "time": 54006, "x": null, "y": 0.6116666666666667}, {"type": "position", "time": 54056, "x": null, "y": 0.6116666666666667}, {"type": "position", "time": 54106, "x": null, "y": 0.6116666666666667}, {"type": "position", "time": 54156, "x": null, "y": 0.6116666666666667}, {"type": "position", "time": 54206, "x": null, "y": 0.6116666666666667}, {"type": "position", "time": 54256, "x": null, "y": 0.6116666666666667}, {"type": "position", "time": 54306, "x": null, "y": 0.6116666666666667}, {"type": "position", "time": 54356, "x": null, "y": 0.6116666666666667}, {"type": "position", "time": 54406, "x": null, "y": 0.6116666666666667}, {"type": "position", "time": 54456, "x": null, "y": 0.6116666666666667}, {"type": "position", "time": 54506, "x": null, "y": 0.6116666666666667}, {"type": "position", "time": 54557, "x": null, "y": 0.6116666666666667}, {"type": "position", "time": 54606, "x": null, "y": 0.6116666666666667}, {"type": "position", "time": 54656, "x": null, "y": 0.6116666666666667}, {"type": "position", "time": 54706, "x": null, "y": 0.6116666666666667}, {"type": "position", "time": 54756, "x": null, "y": 0.6133333333333333}, {"type": "position", "time": 54806, "x": null, "y": 0.6133333333333333}, {"type": "position", "time": 54857, "x": null, "y": 0.6133333333333333}, {"type": "position", "time": 54907, "x": null, "y": 0.615}, {"type": "position", "time": 54956, "x": null, "y": 0.615}, {"type": "position", "time": 55006, "x": null, "y": 0.615}, {"type": "position", "time": 55057, "x": null, "y": 0.615}, {"type": "position", "time": 55106, "x": null, "y": 0.615}, {"type": "position", "time": 55156, "x": null, "y": 0.615}, {"type": "position", "time": 55206, "x": null, "y": 0.615}, {"type": "position", "time": 55256, "x": null, "y": 0.615}, {"type": "position", "time": 55306, "x": null, "y": 0.615}, {"type": "position", "time": 55356, "x": null, "y": 0.615}, {"type": "position", "time": 55406, "x": null, "y": 0.615}, {"type": "position", "time": 55456, "x": null, "y": 0.615}, {"type": "position", "time": 55506, "x": null, "y": 0.615}, {"type": "position", "time": 55556, "x": null, "y": 0.615}, {"type": "position", "time": 55606, "x": null, "y": 0.615}, {"type": "position", "time": 55656, "x": null, "y": 0.615}, {"type": "position", "time": 55706, "x": null, "y": 0.615}, {"type": "position", "time": 55756, "x": null, "y": 0.615}, {"type": "position", "time": 55806, "x": null, "y": 0.615}, {"type": "position", "time": 55856, "x": null, "y": 0.615}, {"type": "position", "time": 55906, "x": null, "y": 0.615}, {"type": "position", "time": 55956, "x": null, "y": 0.615}, {"type": "position", "time": 56006, "x": null, "y": 0.615}, {"type": "position", "time": 56056, "x": null, "y": 0.615}, {"type": "position", "time": 56106, "x": null, "y": 0.615}, {"type": "position", "time": 56156, "x": null, "y": 0.6166666666666667}, {"type": "position", "time": 56206, "x": null, "y": 0.6166666666666667}, {"type": "position", "time": 56256, "x": null, "y": 0.6166666666666667}, {"type": "position", "time": 56306, "x": null, "y": 0.6133333333333333}, {"type": "position", "time": 56356, "x": null, "y": 0.6133333333333333}, {"type": "position", "time": 56406, "x": null, "y": 0.6133333333333333}, {"type": "position", "time": 56456, "x": null, "y": 0.6133333333333333}, {"type": "position", "time": 56506, "x": null, "y": 0.6116666666666667}, {"type": "position", "time": 56556, "x": null, "y": 0.61}, {"type": "position", "time": 56606, "x": null, "y": 0.605}, {"type": "position", "time": 56656, "x": null, "y": 0.605}, {"type": "position", "time": 56706, "x": null, "y": 0.605}, {"type": "position", "time": 56756, "x": null, "y": 0.605}, {"type": "position", "time": 56806, "x": null, "y": 0.605}, {"type": "position", "time": 56856, "x": null, "y": 0.605}, {"type": "position", "time": 56906, "x": null, "y": 0.605}, {"type": "position", "time": 56956, "x": null, "y": 0.605}, {"type": "position", "time": 57006, "x": null, "y": 0.605}, {"type": "position", "time": 57056, "x": null, "y": 0.605}, {"type": "position", "time": 57106, "x": null, "y": 0.605}, {"type": "position", "time": 57156, "x": null, "y": 0.605}, {"type": "position", "time": 57206, "x": null, "y": 0.605}, {"type": "position", "time": 57256, "x": null, "y": 0.605}, {"type": "position", "time": 57306, "x": null, "y": 0.605}, {"type": "position", "time": 57356, "x": null, "y": 0.605}, {"type": "position", "time": 57406, "x": null, "y": 0.605}, {"type": "position", "time": 57456, "x": null, "y": 0.605}, {"type": "position", "time": 57506, "x": null, "y": 0.605}, {"type": "position", "time": 57556, "x": null, "y": 0.605}, {"type": "position", "time": 57607, "x": null, "y": 0.605}, {"type": "position", "time": 57656, "x": null, "y": 0.605}, {"type": "position", "time": 57706, "x": null, "y": 0.605}, {"type": "position", "time": 57757, "x": null, "y": 0.605}, {"type": "position", "time": 57806, "x": null, "y": 0.605}, {"type": "position", "time": 57856, "x": null, "y": 0.605}, {"type": "position", "time": 57907, "x": null, "y": 0.605}, {"type": "position", "time": 57956, "x": null, "y": 0.605}, {"type": "position", "time": 58006, "x": null, "y": 0.605}, {"type": "position", "time": 58056, "x": null, "y": 0.605}, {"type": "position", "time": 58106, "x": null, "y": 0.605}, {"type": "position", "time": 58156, "x": null, "y": 0.605}, {"type": "position", "time": 58207, "x": null, "y": 0.605}, {"type": "position", "time": 58256, "x": null, "y": 0.605}, {"type": "position", "time": 58306, "x": null, "y": 0.605}, {"type": "position", "time": 58357, "x": null, "y": 0.605}, {"type": "position", "time": 58406, "x": null, "y": 0.605}, {"type": "position", "time": 58456, "x": null, "y": 0.605}, {"type": "position", "time": 58507, "x": null, "y": 0.605}, {"type": "position", "time": 58556, "x": null, "y": 0.605}, {"type": "position", "time": 58606, "x": null, "y": 0.605}, {"type": "position", "time": 58656, "x": null, "y": 0.605}, {"type": "position", "time": 58707, "x": null, "y": 0.5983333333333334}, {"type": "position", "time": 58756, "x": null, "y": 0.5983333333333334}, {"type": "position", "time": 58806, "x": null, "y": 0.5983333333333334}, {"type": "position", "time": 58856, "x": null, "y": 0.5983333333333334}, {"type": "position", "time": 58906, "x": null, "y": 0.5983333333333334}, {"type": "position", "time": 58956, "x": null, "y": 0.5983333333333334}, {"type": "position", "time": 59006, "x": null, "y": 0.5983333333333334}, {"type": "position", "time": 59056, "x": null, "y": 0.5983333333333334}, {"type": "position", "time": 59106, "x": null, "y": 0.5983333333333334}, {"type": "position", "time": 59156, "x": null, "y": 0.5983333333333334}, {"type": "position", "time": 59206, "x": null, "y": 0.5983333333333334}, {"type": "position", "time": 59256, "x": null, "y": 0.5983333333333334}, {"type": "position", "time": 59306, "x": null, "y": 0.5983333333333334}, {"type": "position", "time": 59356, "x": null, "y": 0.5983333333333334}, {"type": "position", "time": 59406, "x": null, "y": 0.5983333333333334}, {"type": "position", "time": 59456, "x": null, "y": 0.5983333333333334}, {"type": "position", "time": 59506, "x": null, "y": 0.5983333333333334}, {"type": "position", "time": 59556, "x": null, "y": 0.5983333333333334}, {"type": "position", "time": 59606, "x": 