{"ApprovalTime": "2016-03-10T20:58:20Z", "SubmitTime": "2016-03-10T20:57:19Z", "AssignmentId": "3G0WWMR1UVK10TWH1RGS73T3S5EQNL", "HITId": "38G0E1M85M53D7EEUOHN21OJ7HQVU5", "answers": {"data": {"trials": [{"story": "fitness", "time": 18632, "name": "David", "rt": 14060, "blocknum": 0, "qtype": "probability", "response": 0.96, "trialnum": 1, "gender": "male", "qnum": 0}, {"story": "fitness", "time": 18632, "name": "David", "rt": 14060, "blocknum": 0, "qtype": "ungrammatical", "trialnum": 1, "gender": "male", "qnum": 0}, {"story": "fitness", "time": 35525, "name": "Destiny", "rt": 16874, "blocknum": 0, "qtype": "explanation", "response": "she didn't job long enough.", "trialnum": 2, "gender": "female", "qnum": 1}, {"story": "fitness", "time": 42221, "name": "Destiny", "rt": 6657, "blocknum": 0, "qtype": "probability", "response": 0.64, "trialnum": 3, "gender": "female", "qnum": 2}, {"story": "fitness", "time": 42221, "name": "Destiny", "rt": 6657, "blocknum": 0, "qtype": "ungrammatical", "trialnum": 3, "gender": "female", "qnum": 2}, {"story": "fitness", "time": 59167, "name": "Paul", "rt": 16916, "blocknum": 0, "qtype": "probability", "response": 0.79, "trialnum": 4, "gender": "male", "qnum": 3}, {"story": "fitness", "time": 59167, "name": "Paul", "rt": 16916, "blocknum": 0, "qtype": "ungrammatical", "response": true, "trialnum": 4, "gender": "male", "qnum": 3}, {"story": "fitness", "time": 65879, "name": "Justin", "rt": 6694, "blocknum": 0, "qtype": "probability", "response": 0.82, "trialnum": 5, "gender": "male", "qnum": 4}, {"story": "fitness", "time": 65879, "name": "Justin", "rt": 6694, "blocknum": 0, "qtype": "ungrammatical", "response": false, "trialnum": 5, "gender": "male", "qnum": 4}, {"story": "fitness", "time": 77167, "name": "Will", "rt": 11254, "blocknum": 0, "qtype": "probability", "response": 0.31, "trialnum": 6, "gender": "male", "qnum": 5}, {"story": "fitness", "time": 77167, "name": "Will", "rt": 11254, "blocknum": 0, "qtype": "ungrammatical", "response": false, "trialnum": 6, "gender": "male", "qnum": 5}, {"story": "reading", "time": 85527, "name": "Katie", "rt": 8328, "blocknum": 1, "qtype": "probability", "response": 0.8, "trialnum": 8, "gender": "female", "qnum": 0}, {"story": "reading", "time": 85527, "name": "Katie", "rt": 8328, "blocknum": 1, "qtype": "ungrammatical", "trialnum": 8, "gender": "female", "qnum": 0}, {"story": "reading", "time": 98603, "name": "Brandon", "rt": 13065, "blocknum": 1, "qtype": "explanation", "response": "he has good eyes.", "trialnum": 9, "gender": "male", "qnum": 1}, {"story": "reading", "time": 102220, "name": "Brandon", "rt": 3581, "blocknum": 1, "qtype": "probability", "response": 0.76, "trialnum": 10, "gender": "male", "qnum": 2}, {"story": "reading", "time": 102220, "name": "Brandon", "rt": 3581, "blocknum": 1, "qtype": "ungrammatical", "trialnum": 10, "gender": "male", "qnum": 2}, {"story": "reading", "time": 111719, "name": "Brian", "rt": 9478, "blocknum": 1, "qtype": "probability", "response": 0.73, "trialnum": 11, "gender": "male", "qnum": 3}, {"story": "reading", "time": 111719, "name": "Brian", "rt": 9478, "blocknum": 1, "qtype": "ungrammatical", "response": true, "trialnum": 11, "gender": "male", "qnum": 3}, {"story": "reading", "time": 127735, "name": "Kyle", "rt": 15979, "blocknum": 1, "qtype": "probability", "response": 0.82, "trialnum": 12, "gender": "male", "qnum": 4}, {"story": "reading", "time": 127735, "name": "Kyle", "rt": 15979, "blocknum": 1, "qtype": "ungrammatical", "response": true, "trialnum": 12, "gender": "male", "qnum": 4}, {"story": "reading", "time": 134023, "name": "Madison", "rt": 6269, "blocknum": 1, "qtype": "probability", "response": 0.72, "trialnum": 13, "gender": "female", "qnum": 5}, {"story": "reading", "time": 134023, "name": "Madison", "rt": 6269, "blocknum": 1, "qtype": "ungrammatical", "response": false, "trialnum": 13, "gender": "female", "qnum": 5}, {"story": "Japan", "time": 140423, "name": "Kathryn", "rt": 6354, "blocknum": 2, "qtype": "probability", "response": 0.63, "trialnum": 15, "gender": "female", "qnum": 0}, {"story": "Japan", "time": 140423, "name": "Kathryn", "rt": 6354, "blocknum": 2, "qtype": "ungrammatical", "trialnum": 15, "gender": "female", "qnum": 0}, {"story": "Japan", "time": 164195, "name": "Michelle", "rt": 23756, "blocknum": 2, "qtype": "explanation", "response": "she adapts to new sleep schedules well.", "trialnum": 16, "gender": "female", "qnum": 1}, {"story": "Japan", "time": 167545, "name": "Michelle", "rt": 3313, "blocknum": 2, "qtype": "probability", "response": 0.71, "trialnum": 17, "gender": "female", "qnum": 2}, {"story": "Japan", "time": 167545, "name": "Michelle", "rt": 3313, "blocknum": 2, "qtype": "ungrammatical", "trialnum": 17, "gender": "female", "qnum": 2}, {"story": "Japan", "time": 175890, "name": "Miranda", "rt": 8318, "blocknum": 2, "qtype": "probability", "response": 0.75, "trialnum": 18, "gender": "female", "qnum": 3}, {"story": "Japan", "time": 175890, "name": "Miranda", "rt": 8318, "blocknum": 2, "qtype": "ungrammatical", "response": true, "trialnum": 18, "gender": "female", "qnum": 3}, {"story": "Japan", "time": 184082, "name": "Logan", "rt": 8175, "blocknum": 2, "qtype": "probability", "response": 0.76, "trialnum": 19, "gender": "male", "qnum": 4}, {"story": "Japan", "time": 184082, "name": "Logan", "rt": 8175, "blocknum": 2, "qtype": "ungrammatical", "response": true, "trialnum": 19, "gender": "male", "qnum": 4}, {"story": "Japan", "time": 190750, "name": "Nicholas", "rt": 6650, "blocknum": 2, "qtype": "probability", "response": 0.69, "trialnum": 20, "gender": "male", "qnum": 5}, {"story": "Japan", "time": 190750, "name": "Nicholas", "rt": 6650, "blocknum": 2, "qtype": "ungrammatical", "response": true, "trialnum": 20, "gender": "male", "qnum": 5}, {"story": "cooking", "time": 198536, "name": "Stephanie", "rt": 7751, "blocknum": 3, "qtype": "probability", "response": 0.77, "trialnum": 22, "gender": "female", "qnum": 0}, {"story": "cooking", "time": 198536, "name": "Stephanie", "rt": 7751, "blocknum": 3, "qtype": "ungrammatical", "trialnum": 22, "gender": "female", "qnum": 0}, {"story": "cooking", "time": 209818, "name": "Alexandra", "rt": 11266, "blocknum": 3, "qtype": "explanation", "response": "she's withdrawn", "trialnum": 23, "gender": "female", "qnum": 1}, {"story": "cooking", "time": 213928, "name": "Alexandra", "rt": 4076, "blocknum": 3, "qtype": "probability", "response": 0.79, "trialnum": 24, "gender": "female", "qnum": 2}, {"story": "cooking", "time": 213928, "name": "Alexandra", "rt": 4076, "blocknum": 3, "qtype": "ungrammatical", "trialnum": 24, "gender": "female", "qnum": 2}, {"story": "cooking", "time": 221382, "name": "Ryan", "rt": 7430, "blocknum": 3, "qtype": "probability", "response": 0.76, "trialnum": 25, "gender": "male", "qnum": 3}, {"story": "cooking", "time": 221382, "name": "Ryan", "rt": 7430, "blocknum": 3, "qtype": "ungrammatical", "response": true, "trialnum": 25, "gender": "male", "qnum": 3}, {"story": "cooking", "time": 226191, "name": "Nicole", "rt": 4789, "blocknum": 3, "qtype": "probability", "response": 0.72, "trialnum": 26, "gender": "female", "qnum": 4}, {"story": "cooking", "time": 226191, "name": "Nicole", "rt": 4789, "blocknum": 3, "qtype": "ungrammatical", "response": true, "trialnum": 26, "gender": "female", "qnum": 4}, {"story": "cooking", "time": 234847, "name": "Benjamin", "rt": 8646, "blocknum": 3, "qtype": "probability", "response": 0.74, "trialnum": 27, "gender": "male", "qnum": 5}, {"story": "cooking", "time": 234847, "name": "Benjamin", "rt": 8646, "blocknum": 3, "qtype": "ungrammatical", "response": true, "trialnum": 27, "gender": "male", "qnum": 5}, {"story": "painting", "time": 241930, "name": "Emily", "rt": 7058, "blocknum": 4, "qtype": "probability", "response": 0.41, "trialnum": 29, "gender": "female", "qnum": 0}, {"story": "painting", "time": 241930, "name": "Emily", "rt": 7058, "blocknum": 4, "qtype": "ungrammatical", "trialnum": 29, "gender": "female", "qnum": 0}, {"story": "painting", "time": 253420, "name": "Christina", "rt": 11474, "blocknum": 4, "qtype": "explanation", "response": "she has no talent.", "trialnum": 30, "gender": "female", "qnum": 1}, {"story": "painting", "time": 258460, "name": "Christina", "rt": 5019, "blocknum": 4, "qtype": "probability", "response": 0.49, "trialnum": 31, "gender": "female", "qnum": 2}, {"story": "painting", "time": 258460, "name": "Christina", "rt": 5019, "blocknum": 4, "qtype": "ungrammatical", "trialnum": 31, "gender": "female", "qnum": 2}, {"story": "painting", "time": 269793, "name": "Savannah", "rt": 11312, "blocknum": 4, "qtype": "probability", "response": 0.52, "trialnum": 32, "gender": "female", "qnum": 3}, {"story": "painting", "time": 269793, "name": "Savannah", "rt": 11312, "blocknum": 4, "qtype": "ungrammatical", "response": true, "trialnum": 32, "gender": "female", "qnum": 3}, {"story": "painting", "time": 282701, "name": "Kelly", "rt": 12891, "blocknum": 4, "qtype": "probability", "response": 0.54, "trialnum": 33, "gender": "female", "qnum": 4}, {"story": "painting", "time": 282701, "name": "Kelly", "rt": 12891, "blocknum": 4, "qtype": "ungrammatical", "response": true, "trialnum": 33, "gender": "female", "qnum": 4}, {"story": "painting", "time": 289982, "name": "Marissa", "rt": 7251, "blocknum": 4, "qtype": "probability", "response": 0.62, "trialnum": 34, "gender": "female", "qnum": 5}, {"story": "painting", "time": 289982, "name": "Marissa", "rt": 7251, "blocknum": 4, "qtype": "ungrammatical", "response": false, "trialnum": 34, "gender": "female", "qnum": 5}, {"story": "coffee", "time": 294306, "name": "Matthew", "rt": 4291, "blocknum": 5, "qtype": "probability", "response": 0.64, "trialnum": 36, "gender": "male", "qnum": 0}, {"story": "coffee", "time": 294306, "name": "Matthew", "rt": 4291, "blocknum": 5, "qtype": "ungrammatical", "trialnum": 36, "gender": "male", "qnum": 0}, {"story": "coffee", "time": 308874, "name": "Ian", "rt": 14559, "blocknum": 5, "qtype": "explanation", "response": "he's used to the effects of caffeine. ", "trialnum": 37, "gender": "male", "qnum": 1}, {"story": "coffee", "time": 312598, "name": "Ian", "rt": 3684, "blocknum": 5, "qtype": "probability", "response": 0.53, "trialnum": 38, "gender": "male", "qnum": 2}, {"story": "coffee", "time": 312598, "name": "Ian", "rt": 3684, "blocknum": 5, "qtype": "ungrammatical", "trialnum": 38, "gender": "male", "qnum": 2}, {"story": "coffee", "time": 321402, "name": "Jenna", "rt": 8774, "blocknum": 5, "qtype": "probability", "response": 0.65, "trialnum": 39, "gender": "female", "qnum": 3}, {"story": "coffee", "time": 321402, "name": "Jenna", "rt": 8774, "blocknum": 5, "qtype": "ungrammatical", "response": false, "trialnum": 39, "gender": "female", "qnum": 3}, {"story": "coffee", "time": 339132, "name": "Megan", "rt": 17712, "blocknum": 5, "qtype": "probability", "response": 0.38, "trialnum": 40, "gender": "female", "qnum": 4}, {"story": "coffee", "time": 339132, "name": "Megan", "rt": 17712, "blocknum": 5, "qtype": "ungrammatical", "response": false, "trialnum": 40, "gender": "female", "qnum": 4}, {"story": "coffee", "time": 348756, "name": "Cassandra", "rt": 9607, "blocknum": 5, "qtype": "probability", "response": 0.33, "trialnum": 41, "gender": "female", "qnum": 5}, {"story": "coffee", "time": 348756, "name": "Cassandra", "rt": 9607, "blocknum": 5, "qtype": "ungrammatical", "response": false, "trialnum": 41, "gender": "female", "qnum": 5}, {"story": "insomnia", "time": 352583, "name": "Sean", "rt": 3802, "blocknum": 6, "qtype": "probability", "response": 0.64, "trialnum": 43, "gender": "male", "qnum": 0}, {"story": "insomnia", "time": 352583, "name": "Sean", "rt": 3802, "blocknum": 6, "qtype": "ungrammatical", "trialnum": 43, "gender": "male", "qnum": 0}, {"story": "insomnia", "time": 376686, "name": "Eric", "rt": 24091, "blocknum": 6, "qtype": "explanation", "response": "he's good at focusing.", "trialnum": 44, "gender": "male", "qnum": 1}, {"story": "insomnia", "time": 380192, "name": "Eric", "rt": 3486, "blocknum": 6, "qtype": "probability", "response": 0.52, "trialnum": 45, "gender": "male", "qnum": 2}, {"story": "insomnia", "time": 380192, "name": "Eric", "rt": 3486, "blocknum": 6, "qtype": "ungrammatical", "trialnum": 45, "gender": "male", "qnum": 2}, {"story": "insomnia", "time": 388783, "name": "Jason", "rt": 8562, "blocknum": 6, "qtype": "probability", "response": 0.72, "trialnum": 46, "gender": "male", "qnum": 3}, {"story": "insomnia", "time": 388783, "name": "Jason", "rt": 8562, "blocknum": 6, "qtype": "ungrammatical", "response": true, "trialnum": 46, "gender": "male", "qnum": 3}, {"story": "insomnia", "time": 398672, "name": "Hannah", "rt": 9864, "blocknum": 6, "qtype": "probability", "response": 0.69, "trialnum": 47, "gender": "female", "qnum": 4}, {"story": "insomnia", "time": 398672, "name": "Hannah", "rt": 9864, "blocknum": 6, "qtype": "ungrammatical", "response": true, "trialnum": 47, "gender": "female", "qnum": 4}, {"story": "insomnia", "time": 409653, "name": "Evan", "rt": 10948, "blocknum": 6, "qtype": "probability", "response": 0.54, "trialnum": 48, "gender": "male", "qnum": 5}, {"story": "insomnia", "time": 409653, "name": "Evan", "rt": 10948, "blocknum": 6, "qtype": "ungrammatical", "response": true, "trialnum": 48, "gender": "male", "qnum": 5}, {"story": "guitar", "time": 414568, "name": "Jared", "rt": 4891, "blocknum": 7, "qtype": "probability", "response": 0.41, "trialnum": 50, "gender": "male", "qnum": 0}, {"story": "guitar", "time": 414568, "name": "Jared", "rt": 4891, "blocknum": 7, "qtype": "ungrammatical", "trialnum": 50, "gender": "male", "qnum": 0}, {"story": "guitar", "time": 437203, "name": "Anthony", "rt": 22622, "blocknum": 7, "qtype": "explanation", "response": "he has thick skin.", "trialnum": 51, "gender": "male", "qnum": 1}, {"story": "guitar", "time": 440633, "name": "Anthony", "rt": 3406, "blocknum": 7, "qtype": "probability", "response": 0.35, "trialnum": 52, "gender": "male", "qnum": 2}, {"story": "guitar", "time": 440633, "name": "Anthony", "rt": 3406, "blocknum": 7, "qtype": "ungrammatical", "trialnum": 52, "gender": "male", "qnum": 2}, {"story": "guitar", "time": 447376, "name": "Gabriel", "rt": 6717, "blocknum": 7, "qtype": "probability", "response": 0.36, "trialnum": 53, "gender": "male", "qnum": 3}, {"story": "guitar", "time": 447376, "name": "Gabriel", "rt": 6717, "blocknum": 7, "qtype": "ungrammatical", "response": true, "trialnum": 53, "gender": "male", "qnum": 3}, {"story": "guitar", "time": 454261, "name": "Haley", "rt": 6858, "blocknum": 7, "qtype": "probability", "response": 0.42, "trialnum": 54, "gender": "female", "qnum": 4}, {"story": "guitar", "time": 454261, "name": "Haley", "rt": 6858, "blocknum": 7, "qtype": "ungrammatical", "response": true, "trialnum": 54, "gender": "female", "qnum": 4}, {"story": "guitar", "time": 458541, "name": "John", "rt": 4231, "blocknum": 7, "qtype": "probability", "response": 0.42, "trialnum": 55, "gender": "male", "qnum": 5}, {"story": "guitar", "time": 458541, "name": "John", "rt": 4231, "blocknum": 7, "qtype": "ungrammatical", "response": true, "trialnum": 55, "gender": "male", "qnum": 5}, {"story": "beach", "time": 466147, "name": "Crystal", "rt": 7590, "blocknum": 8, "qtype": "probability", "response": 0.84, "trialnum": 57, "gender": "female", "qnum": 0}, {"story": "beach", "time": 466147, "name": "Crystal", "rt": 7590, "blocknum": 8, "qtype": "ungrammatical", "trialnum": 57, "gender": "female", "qnum": 0}, {"story": "beach", "time": 479500, "name": "Andrew", "rt": 13341, "blocknum": 8, "qtype": "explanation", "response": "he used sunscreen ", "trialnum": 58, "gender": "male", "qnum": 1}, {"story": "beach", "time": 483641, "name": "Andrew", "rt": 4102, "blocknum": 8, "qtype": "probability", "response": 0.85, "trialnum": 59, "gender": "male", "qnum": 2}, {"story": "beach", "time": 483641, "name": "Andrew", "rt": 4102, "blocknum": 8, "qtype": "ungrammatical", "trialnum": 59, "gender": "male", "qnum": 2}, {"story": "beach", "time": 490667, "name": "Luis", "rt": 6993, "blocknum": 8, "qtype": "probability", "response": 0.77, "trialnum": 60, "gender": "male", "qnum": 3}, {"story": "beach", "time": 490667, "name": "Luis", "rt": 6993, "blocknum": 8, "qtype": "ungrammatical", "response": true, "trialnum": 60, "gender": "male", "qnum": 3}, {"story": "beach", "time": 495306, "name": "Jessica", "rt": 4604, "blocknum": 8, "qtype": "probability", "response": 0.79, "trialnum": 61, "gender": "female", "qnum": 4}, {"story": "beach", "time": 495306, "name": "Jessica", "rt": 4604, "blocknum": 8, "qtype": "ungrammatical", "response": false, "trialnum": 61, "gender": "female", "qnum": 4}, {"story": "beach", "time": 500159, "name": "Joshua", "rt": 4837, "blocknum": 8, "qtype": "probability", "response": 0.79, "trialnum": 62, "gender": "male", "qnum": 5}, {"story": "beach", "time": 500159, "name": "Joshua", "rt": 4837, "blocknum": 8, "qtype": "ungrammatical", "response": false, "trialnum": 62, "gender": "male", "qnum": 5}], "events": [{"type": "position", "time": 229, "x": 0, "y": 0}, {"type": "position", "time": 250, "x": 0, "y": 0}, {"type": "position", "time": 283, "x": 0, "y": 0}, {"type": "position", "time": 355, "x": 0, "y": 0}, {"type": "position", "time": 379, "x": 0, "y": 0}, {"type": "position", "time": 428, "x": 0, "y": 0}, {"type": "position", "time": 478, "x": 0, "y": 0}, {"type": "position", "time": 528, "x": 0, "y": 0}, {"type": "position", "time": 578, "x": 0, "y": 0}, {"type": "position", "time": 629, "x": 1.04125, "y": 0.051666666666666666}, {"type": "position", "time": 680, "x": 1.0425, "y": 0.056666666666666664}, {"type": "position", "time": 730, "x": 1.025, "y": 0.075}, {"type": "position", "time": 778, "x": 1.015, "y": 0.08333333333333333}, {"type": "position", "time": 833, "x": 0.97875, "y": 0.15666666666666668}, {"type": "position", "time": 880, "x": 0.985, "y": 0.19333333333333333}, {"type": "position", "time": 929, "x": 1.01, "y": 0.245}, {"type": "position", "time": 978, "x": 1.04625, "y": 0.345}, {"type": "position", "time": 1028, "x": 1.05625, "y": 0.38}, {"type": "position", "time": 1079, "x": 1.1075, "y": 0.355}, {"type": "position", "time": 1128, "x": 1.15125, "y": 0.33}, {"type": "position", "time": 1190, "x": 1.15125, "y": 0.3283333333333333}, {"type": "position", "time": 1255, "x": 1.15125, "y": 0.3283333333333333}, {"type": "position", "time": 1279, "x": 1.15125, "y": 0.3283333333333333}, {"type": "position", "time": 1328, "x": 1.15125, "y": 0.3283333333333333}, {"type": "position", "time": 1379, "x": 1.15125, "y": 0.3283333333333333}, {"type": "position", "time": 1497, "x": 1.17875, "y": 0.455}, {"type": "position", "time": 1513, "x": 1.1775, "y": 0.4766666666666667}, {"type": "position", "time": 1548, "x": 1.1725, "y": 0.49833333333333335}, {"type": "position", "time": 1596, "x": 1.17125, "y": 0.5066666666666667}, {"type": "position", "time": 1646, "x": 1.17125, "y": 0.5066666666666667}, {"type": "position", "time": 1707, "x": 1.175, "y": 0.49666666666666665}, {"type": "position", "time": 1747, "x": 1.185, "y": 0.48833333333333334}, {"type": "position", "time": 1796, "x": 1.19125, "y": 0.48}, {"type": "position", "time": 1846, "x": 1.205, "y": 0.4533333333333333}, {"type": "position", "time": 1897, "x": 1.2225, "y": 0.4166666666666667}, {"type": "position", "time": 1947, "x": 1.2475, "y": 0.3883333333333333}, {"type": "position", "time": 2041, "x": 1.2825, "y": 0.34833333333333333}, {"type": "position", "time": 2052, "x": 1.2875, "y": 0.3416666666666667}, {"type": "position", "time": 2842, "x": 1.68, "y": 0.37}, {"type": "position", "time": 2962, "x": 1.88, "y": 0.20666666666666667}, {"type": "position", "time": 2983, "x": 1.90125, "y": 0.17}, {"type": "position", "time": 3012, "x": 1.90125, "y": 0.17}, {"type": "position", "time": 3065, "x": 1.90125, "y": 0.17}, {"type": "position", "time": 3115, "x": 1.90125, "y": 0.17}, {"type": "position", "time": 3162, "x": 1.90125, "y": 0.17}, {"type": "position", "time": 3223, "x": 1.90125, "y": 0.17}, {"type": "position", "time": 3262, "x": 1.90125, "y": 0.17}, {"type": "position", "time": 3312, "x": 1.90125, "y": 0.17}, {"type": "position", "time": 3362, "x": 1.90125, "y": 0.17}, {"type": "position", "time": 3413, "x": 1.90125, "y": 0.17}, {"type": "position", "time": 3462, "x": 1.90125, "y": 0.17}, {"type": "position", "time": 3512, "x": 1.7775, "y": 0.06833333333333333}, {"type": "position", "time": 3562, "x": 1.60875, "y": 0.09166666666666666}, {"type": "position", "time": 3612, "x": 1.45125, "y": 0.105}, {"type": "position", "time": 3662, "x": 1.22, "y": 0.20666666666666667}, {"type": "position", "time": 3712, "x": 1.0725, "y": 0.365}, {"type": "position", "time": 3797, "x": 0.98625, "y": 0.465}, {"type": "position", "time": 3812, "x": 0.985, "y": 0.4666666666666667}, {"type": "position", "time": 3862, "x": 0.97375, "y": 0.4766666666666667}, {"type": "position", "time": 3912, "x": 0.92625, "y": 0.515}, {"type": "position", "time": 3962, "x": 0.90875, "y": 0.5333333333333333}, {"type": "position", "time": 4012, "x": 0.90875, "y": 0.5216666666666666}, {"type": "position", "time": 4062, "x": 0.9125, "y": 0.5166666666666667}, {"type": "position", "time": 4112, "x": 0.9325, "y": 0.5016666666666667}, {"type": "position", "time": 4162, "x": 0.9375, "y": 0.49666666666666665}, {"type": "position", "time": 4212, "x": 0.93875, "y": 0.49666666666666665}, {"type": "position", "time": 4262, "x": 0.93875, "y": 0.49666666666666665}, {"type": "position", "time": 4312, "x": 0.93875, "y": 0.49666666666666665}, {"type": "position", "time": 4362, "x": 0.93875, "y": 0.495}, {"type": "position", "time": 4415, "x": 0.93875, "y": 0.495}, {"type": "position", "time": 4462, "x": 0.93875, "y": 0.495}, {"type": "position", "time": 4512, "x": 0.93875, "y": 0.495}, {"type": "click", "time": 4589, "x": 0.93875, "y": 0.495}, {"type": "position", "time": 4678, "x": 1.08125, "y": 0.45666666666666667}, {"type": "position", "time": 4698, "x": 1.0875, "y": 0.455}, {"type": "position", "time": 4728, "x": 1.08875, "y": 0.455}, {"type": "position", "time": 4787, "x": 1.1375, "y": 0.4066666666666667}, {"type": "position", "time": 4829, "x": 1.18875, "y": 0.35833333333333334}, {"type": "position", "time": 4879, "x": 1.19625, "y": 0.34833333333333333}, {"type": "position", "time": 4936, "x": 1.1975, "y": 0.34833333333333333}, {"type": "position", "time": 4983, "x": 1.1975, "y": 0.34}, {"type": "position", "time": 5032, "x": 1.1975, "y": 0.3283333333333333}, {"type": "position", "time": 5080, "x": 1.19625, "y": 0.31833333333333336}, {"type": "position", "time": 5128, "x": 1.18, "y": 0.31}, {"type": "position", "time": 5185, "x": 1.16, "y": 0.3016666666666667}, {"type": "position", "time": 5240, "x": 1.13625, "y": 0.2683333333333333}, {"type": "position", "time": 5278, "x": 1.095, "y": 0.21833333333333332}, {"type": "position", "time": 5332, "x": 1.0225, "y": 0.15}, {"type": "position", "time": 5381, "x": 0.98875, "y": 0.12333333333333334}, {"type": "position", "time": 5428, "x": 0.94875, "y": 0.10166666666666667}, {"type": "position", "time": 5491, "x": 0.88875, "y": 0.09166666666666666}, {"type": "position", "time": 5531, "x": 0.81875, "y": 0.13333333333333333}, {"type": "position", "time": 5578, "x": 0.75, "y": 0.21833333333333332}, {"type": "position", "time": 5629, "x": 0.745, "y": 0.23833333333333334}, {"type": "position", "time": 5744, "x": 0.74625, "y": 0.22833333333333333}, {"type": "position", "time": 5768, "x": 0.75, "y": 0.21333333333333335}, {"type": "position", "time": 5800, "x": 0.74875, "y": 0.195}, {"type": "position", "time": 5847, "x": 0.74875, "y": 0.18666666666666668}, {"type": "position", "time": 5894, "x": 0.75, "y": 0.17833333333333334}, {"type": "position", "time": 5958, "x": 0.77, "y": 0.165}, {"type": "position", "time": 6022, "x": 0.96375, "y": 0.17666666666666667}, {"type": "position", "time": 6191, "x": 1.09375, "y": 0.2}, {"type": "position", "time": 6212, "x": 1.09375, "y": 0.20333333333333334}, {"type": "position", "time": 6245, "x": 1.07875, "y": 0.22}, {"type": "position", "time": 6291, "x": 0.99625, "y": 0.25166666666666665}, {"type": "position", "time": 6344, "x": 0.86875, "y": 0.32166666666666666}, {"type": "position", "time": 6391, "x": 0.83875, "y": 0.3383333333333333}, {"type": "position", "time": 6448, "x": 0.84375, "y": 0.33666666666666667}, {"type": "position", "time": 6496, "x": 0.865, "y": 0.32166666666666666}, {"type": "position", "time": 6543, "x": 0.8825, "y": 0.315}, {"type": "position", "time": 6597, "x": 0.94875, "y": 0.305}, {"type": "position", "time": 6645, "x": 0.98125, "y": 0.28833333333333333}, {"type": "position", "time": 6691, "x": 0.98125, "y": 0.28833333333333333}, {"type": "position", "time": 6740, "x": 0.98125, "y": 0.28833333333333333}, {"type": "position", "time": 6790, "x": 0.98125, "y": 0.28833333333333333}, {"type": "position", "time": 6888, "x": 0.98125, "y": 0.28833333333333333}, {"type": "position", "time": 7008, "x": 0.98125, "y": 0.28833333333333333}, {"type": "position", "time": 7022, "x": 0.98125, "y": 0.28833333333333333}, {"type": "position", "time": 7058, "x": 0.98375, "y": 0.2866666666666667}, {"type": "position", "time": 7107, "x": 0.98375, "y": 0.2866666666666667}, {"type": "position", "time": 7162, "x": 0.98375, "y": 0.2866666666666667}, {"type": "position", "time": 7253, "x": 0.98375, "y": 0.2866666666666667}, {"type": "position", "time": 7262, "x": 0.98375, "y": 0.2866666666666667}, {"type": "position", "time": 7312, "x": 0.98375, "y": 0.2866666666666667}, {"type": "position", "time": 7362, "x": 0.98375, "y": 0.2866666666666667}, {"type": "position", "time": 7412, "x": 0.98375, "y": 0.2866666666666667}, {"type": "position", "time": 7462, "x": 0.98375, "y": 0.2866666666666667}, {"type": "position", "time": 7516, "x": 1.0375, "y": 0.45666666666666667}, {"type": "position", "time": 7571, "x": 1.1075, "y": 0.405}, {"type": "position", "time": 7611, "x": 1.11, "y": 0.37666666666666665}, {"type": "position", "time": 7665, "x": 1.0825, "y": 0.315}, {"type": "position", "time": 7865, "x": 0.72375, "y": 0.235}, {"type": "position", "time": 7894, "x": 0.715, "y": 0.23333333333333334}, {"type": "position", "time": 7915, "x": 0.715, "y": 0.23166666666666666}, {"type": "position", "time": 7965, "x": 0.715, "y": 0.23166666666666666}, {"type": "position", "time": 8015, "x": 0.715, "y": 0.23166666666666666}, {"type": "position", "time": 8086, "x": 0.81125, "y": 0.24}, {"type": "position", "time": 8211, "x": 1.06375, "y": 0.24666666666666667}, {"type": "position", "time": 8236, "x": 1.08375, "y": 0.24666666666666667}, {"type": "position", "time": 8260, "x": 1.10375, "y": 0.24333333333333335}, {"type": "position", "time": 8313, "x": 1.14125, "y": 0.24166666666666667}, {"type": "position", "time": 8360, "x": 1.1475, "y": 0.24166666666666667}, {"type": "position", "time": 8410, "x": 1.1475, "y": 0.24166666666666667}, {"type": "position", "time": 8481, "x": 1.11125, "y": 0.265}, {"type": "position", "time": 8521, "x": 1.06875, "y": 0.2683333333333333}, {"type": "position", "time": 8561, "x": 1.0675, "y": 0.2683333333333333}, {"type": "position", "time": 8610, "x": 1.0675, "y": 0.2683333333333333}, {"type": "position", "time": 8669, "x": 1.0675, "y": 0.2683333333333333}, {"type": "position", "time": 8711, "x": 1.05, "y": 0.27}, {"type": "position", "time": 8764, "x": 0.9675, "y": 0.2916666666666667}, {"type": "position", "time": 8812, "x": 0.9475, "y": 0.2966666666666667}, {"type": "position", "time": 8860, "x": 0.935, "y": 0.2916666666666667}, {"type": "position", "time": 8910, "x": 0.935, "y": 0.2916666666666667}, {"type": "position", "time": 8960, "x": 0.935, "y": 0.2916666666666667}, {"type": "position", "time": 9010, "x": 0.935, "y": 0.2916666666666667}, {"type": "position", "time": 9060, "x": 0.935, "y": 0.2916666666666667}, {"type": "position", "time": 9118, "x": 0.935, "y": 0.29}, {"type": "position", "time": 9166, "x": 0.935, "y": 0.285}, {"type": "position", "time": 9211, "x": 0.935, "y": 0.285}, {"type": "position", "time": 9310, "x": 0.90875, "y": 0.3}, {"type": "position", "time": 9329, "x": 0.905, "y": 0.3}, {"type": "position", "time": 9361, "x": 0.9, "y": 0.3}, {"type": "position", "time": 9410, "x": 0.9, "y": 0.3}, {"type": "position", "time": 9485, "x": 0.8475, "y": 0.28}, {"type": "position", "time": 9596, "x": 0.78875, "y": 0.27}, {"type": "position", "time": 9616, "x": 0.78875, "y": 0.27}, {"type": "position", "time": 9652, "x": 0.78875, "y": 0.27}, {"type": "position", "time": 9696, "x": 0.78875, "y": 0.27}, {"type": "position", "time": 9758, "x": 0.7875, "y": 0.27}, {"type": "position", "time": 9801, "x": 0.76625, "y": 0.27}, {"type": "position", "time": 9847, "x": 0.71375, "y": 0.265}, {"type": "position", "time": 9896, "x": 0.7075, "y": 0.26166666666666666}, {"type": "position", "time": 9946, "x": 0.70125, "y": 0.25}, {"type": "position", "time": 10004, "x": 0.70125, "y": 0.24833333333333332}, {"type": "position", "time": 10071, "x": 0.78125, "y": 0.23666666666666666}, {"type": "position", "time": 10096, "x": 0.84, "y": 0.23833333333333334}, {"type": "position", "time": 10147, "x": 1.00875, "y": 0.245}, {"type": "position", "time": 10196, "x": 1.025, "y": 0.25}, {"type": "position", "time": 10250, "x": 1.015, "y": 0.25666666666666665}, {"type": "position", "time": 10297, "x": 0.90625, "y": 0.3016666666666667}, {"type": "position", "time": 10418, "x": 0.7675, "y": 0.3433333333333333}, {"type": "position", "time": 10427, "x": 0.7625, "y": 0.35}, {"type": "position", "time": 10472, "x": 0.72625, "y": 0.425}, {"type": "position", "time": 10522, "x": 0.70875, "y": 0.47833333333333333}, {"type": "position", "time": 10568, "x": 0.70875, "y": 0.48333333333333334}, {"type": "position", "time": 10642, "x": 0.72375, "y": 0.49833333333333335}, {"type": "position", "time": 10678, "x": 0.7575, "y": 0.5116666666666667}, {"type": "position", "time": 10725, "x": 0.78875, "y": 0.5216666666666666}, {"type": "position", "time": 10773, "x": 0.8175, "y": 0.5266666666666666}, {"type": "position", "time": 10828, "x": 0.8475, "y": 0.5266666666666666}, {"type": "position", "time": 10868, "x": 0.85125, "y": 0.5266666666666666}, {"type": "position", "time": 10944, "x": 0.8675, "y": 0.5216666666666666}, {"type": "position", "time": 10979, "x": 0.90875, "y": 0.515}, {"type": "position", "time": 11026, "x": 0.9325, "y": 0.51}, {"type": "position", "time": 11072, "x": 0.9525, "y": 0.5083333333333333}, {"type": "position", "time": 11118, "x": 0.96125, "y": 0.5066666666666667}, {"type": "position", "time": 11245, "x": 0.96125, "y": 0.5066666666666667}, {"type": "position", "time": 11246, "x": 0.96125, "y": 0.5066666666666667}, {"type": "position", "time": 11294, "x": 0.965, "y": 0.5066666666666667}, {"type": "position", "time": 11350, "x": 0.96875, "y": 0.5116666666666667}, {"type": "position", "time": 11397, "x": 0.97375, "y": 0.5166666666666667}, {"type": "position", "time": 11460, "x": 0.97375, "y": 0.52}, {"type": "position", "time": 11497, "x": 0.97625, "y": 0.5233333333333333}, {"type": "position", "time": 11544, "x": 0.97625, "y": 0.5266666666666666}, {"type": "position", "time": 11596, "x": 0.97625, "y": 0.5316666666666666}, {"type": "position", "time": 11644, "x": 0.97625, "y": 0.5316666666666666}, {"type": "position", "time": 11694, "x": 0.97625, "y": 0.5316666666666666}, {"type": "position", "time": 11744, "x": 0.97625, "y": 0.5316666666666666}, {"type": "position", "time": 11794, "x": 0.97625, "y": 0.5316666666666666}, {"type": "position", "time": 11844, "x": 0.97625, "y": 0.5316666666666666}, {"type": "position", "time": 11894, "x": 0.97625, "y": 0.5316666666666666}, {"type": "position", "time": 11944, "x": 0.97625, "y": 0.5316666666666666}, {"type": "position", "time": 11995, "x": 0.97625, "y": 0.5316666666666666}, {"type": "position", "time": 12044, "x": 0.97625, "y": 0.5316666666666666}, {"type": "position", "time": 12094, "x": 0.97625, "y": 0.5316666666666666}, {"type": "position", "time": 12144, "x": 0.97625, "y": 0.5316666666666666}, {"type": "position", "time": 12257, "x": 0.97625, "y": 0.5316666666666666}, {"type": "position", "time": 12259, "x": 0.97625, "y": 0.5316666666666666}, {"type": "position", "time": 12307, "x": 0.97625, "y": 0.5316666666666666}, {"type": "position", "time": 12356, "x": 0.9775, "y": 0.5316666666666666}, {"type": "position", "time": 12410, "x": 0.99125, "y": 0.5316666666666666}, {"type": "position", "time": 12465, "x": 1.005, "y": 0.53}, {"type": "position", "time": 12507, "x": 1.01125, "y": 0.53}, {"type": "position", "time": 12556, "x": 1.02375, "y": 0.53}, {"type": "position", "time": 12607, "x": 1.025, "y": 0.53}, {"type": "position", "time": 12657, "x": 1.02625, "y": 0.53}, {"type": "position", "time": 12736, "x": 1.03625, "y": 0.5316666666666666}, {"type": "position", "time": 12759, "x": 1.04, "y": 0.5333333333333333}, {"type": "position", "time": 12807, "x": 1.04625, "y": 0.5333333333333333}, {"type": "position", "time": 12859, "x": 1.05875, "y": 0.5383333333333333}, {"type": "position", "time": 12907, "x": 1.0675, "y": 0.5383333333333333}, {"type": "position", "time": 12956, "x": 1.07125, "y": 0.5383333333333333}, {"type": "position", "time": 13006, "x": 1.07875, "y": 0.5383333333333333}, {"type": "position", "time": 13105, "x": 1.07875, "y": 0.5383333333333333}, {"type": "position", "time": 13112, "x": 1.07875, "y": 0.5383333333333333}, {"type": "position", "time": 13157, "x": 1.07875, "y": 0.5383333333333333}, {"type": "position", "time": 13220, "x": 1.08125, "y": 0.5383333333333333}, {"type": "position", "time": 13264, "x": 1.1075, "y": 0.54}, {"type": "position", "time": 14057, "x": 1.23375, "y": 0.5316666666666666}, {"type": "position", "time": 14086, "x": 1.23375, "y": 0.5316666666666666}, {"type": "position", "time": 14107, "x": 1.2325, "y": 0.5316666666666666}, {"type": "position", "time": 14157, "x": 1.23125, "y": 0.5316666666666666}, {"type": "position", "time": 14207, "x": 1.23125, "y": 0.5316666666666666}, {"type": "slider", "time": 14276, "value": 0.96}, {"type": "position", "time": 14280, "x": 1.23125, "y": 0.5316666666666666}, {"type": "position", "time": 14307, "x": 1.23125, "y": 0.5316666666666666}, {"type": "position", "time": 14357, "x": 1.23125, "y": 0.5316666666666666}, {"type": "position", "time": 14423, "x": 1.23125, "y": 0.5316666666666666}, {"type": "position", "time": 14458, "x": 1.23125, "y": 0.5316666666666666}, {"type": "position", "time": 14508, "x": 1.23125, "y": 0.5316666666666666}, {"type": "position", "time": 14557, "x": 1.23125, "y": 0.5316666666666666}, {"type": "position", "time": 14607, "x": 1.23125, "y": 0.5316666666666666}, {"type": "position", "time": 14657, "x": 1.23125, "y": 0.5316666666666666}, {"type": "position", "time": 14734, "x": 1.16125, "y": 0.5533333333333333}, {"type": "position", "time": 14767, "x": 1.1275, "y": 0.565}, {"type": "position", "time": 14894, "x": 0.97875, "y": 0.655}, {"type": "position", "time": 14922, "x": 0.96375, "y": 0.6583333333333333}, {"type": "position", "time": 14958, "x": 0.95875, "y": 0.6583333333333333}, {"type": "position", "time": 14997, "x": 0.95125, "y": 0.6516666666666666}, {"type": "position", "time": 15046, "x": 0.9475, "y": 0.65}, {"type": "position", "time": 15104, "x": 0.9475, "y": 0.6466666666666666}, {"type": "position", "time": 15144, "x": 0.94875, "y": 0.6433333333333333}, {"type": "position", "time": 15194, "x": 0.94875, "y": 0.6416666666666667}, {"type": "position", "time": 15244, "x": 0.94875, "y": 0.64}, {"type": "position", "time": 15297, "x": 0.94875, "y": 0.6383333333333333}, {"type": "position", "time": 15351, "x": 0.985, "y": 0.6466666666666666}, {"type": "position", "time": 15405, "x": 1.13125, "y": 0.6566666666666666}, {"type": "position", "time": 15444, "x": 1.14875, "y": 0.6533333333333333}, {"type": "position", "time": 15501, "x": 1.1575, "y": 0.645}, {"type": "position", "time": 15544, "x": 1.15875, "y": 0.6433333333333333}, {"type": "position", "time": 15624, "x": 1.165, "y": 0.6283333333333333}, {"type": "position", "time": 15653, "x": 1.18375, "y": 0.6033333333333334}, {"type": "position", "time": 15708, "x": 1.23, "y": 0.5433333333333333}, {"type": "position", "time": 15750, "x": 1.245, "y": 0.5216666666666666}, {"type": "position", "time": 15794, "x": 1.24625, "y": 0.5216666666666666}, {"type": "position", "time": 15872, "x": 1.24625, "y": 0.5216666666666666}, {"type": "position", "time": 15894, "x": 1.24625, "y": 0.5216666666666666}, {"type": "position", "time": 15944, "x": 1.24625, "y": 0.5216666666666666}, {"type": "position", "time": 16013, "x": 1.23625, "y": 0.5133333333333333}, {"type": "position", "time": 16057, "x": 1.18375, "y": 0.4816666666666667}, {"type": "position", "time": 16110, "x": 1.09625, "y": 0.41}, {"type": "position", "time": 16159, "x": 1.08875, "y": 0.38666666666666666}, {"type": "position", "time": 16206, "x": 1.0925, "y": 0.36333333333333334}, {"type": "position", "time": 16251, "x": 1.09625, "y": 0.345}, {"type": "position", "time": 16309, "x": 1.1, "y": 0.29833333333333334}, {"type": "position", "time": 16362, "x": 1.10625, "y": 0.12333333333333334}, {"type": "position", "time": 16400, "x": 1.11, "y": 0.07833333333333334}, {"type": "position", "time": 16455, "x": 1.1125, "y": 0.005}, {"type": "position", "time": 16494, "x": 1.1125, "y": 0.005}, {"type": "position", "time": 16543, "x": 1.1125, "y": 0.005}, {"type": "position", "time": 16594, "x": 1.1125, "y": 0.005}, {"type": "position", "time": 16644, "x": 1.1125, "y": 0.005}, {"type": "position", "time": 16694, "x": 1.1125, "y": 0.005}, {"type": "position", "time": 16754, "x": 1.1125, "y": 0.005}, {"type": "position", "time": 16799, "x": 1.07625, "y": 0.005}, {"type": "position", "time": 16860, "x": 1.0325, "y": 0.11166666666666666}, {"type": "position", "time": 16916, "x": 1.02375, "y": 0.13333333333333333}, {"type": "position", "time": 16944, "x": 1.02375, "y": 0.13333333333333333}, {"type": "position", "time": 16994, "x": 1.02375, "y": 0.13333333333333333}, {"type": "position", "time": 17044, "x": 1.03125, "y": 0.13166666666666665}, {"type": "position", "time": 17097, "x": 1.03625, "y": 0.12833333333333333}, {"type": "position", "time": 17170, "x": 1.04625, "y": 0.12833333333333333}, {"type": "position", "time": 17219, "x": 1.05375, "y": 0.13}, {"type": "position", "time": 17295, "x": 1.08375, "y": 0.12}, {"type": "position", "time": 17331, "x": 1.1, "y": 0.11833333333333333}, {"type": "position", "time": 17391, "x": 1.1, "y": 0.11666666666666667}, {"type": "position", "time": 17395, "x": 1.1, "y": 0.11666666666666667}, {"type": "position", "time": 17444, "x": 1.1, "y": 0.11666666666666667}, {"type": "position", "time": 17530, "x": 1.09625, "y": 0.13333333333333333}, {"type": "position", "time": 17557, "x": 1.09375, "y": 0.14166666666666666}, {"type": "position", "time": 17669, "x": 1.20625, "y": 0.42333333333333334}, {"type": "position", "time": 17688, "x": 1.20875, "y": 0.49833333333333335}, {"type": "position", "time": 17720, "x": 1.20875, "y": 0.49833333333333335}, {"type": "position", "time": 17770, "x": 1.20875, "y": 0.49833333333333335}, {"type": "position", "time": 17819, "x": 1.20875, "y": 0.49833333333333335}, {"type": "position", "time": 17876, "x": 1.20375, "y": 0.5883333333333334}, {"type": "position", "time": 17920, "x": 1.18625, "y": 0.5883333333333334}, {"type": "position", "time": 17969, "x": 1.1075, "y": 0.5866666666666667}, {"type": "position", "time": 18023, "x": 1.0175, "y": 0.6283333333333333}, {"type": "position", "time": 18070, "x": 0.9475, "y": 0.6716666666666666}, {"type": "position", "time": 18118, "x": 0.93125, "y": 0.68}, {"type": "position", "time": 18168, "x": 0.91875, "y": 0.6783333333333333}, {"type": "position", "time": 18221, "x": 0.91625, "y": 0.67}, {"type": "position", "time": 18269, "x": 0.915, "y": 0.6633333333333333}, {"type": "position", "time": 18318, "x": 0.915, "y": 0.655}, {"type": "position", "time": 18371, "x": 0.9175, "y": 0.6466666666666666}, {"type": "position", "time": 18418, "x": 0.92375, "y": 0.635}, {"type": "position", "time": 18527, "x": 0.925, "y": 0.63}, {"type": "position", "time": 18532, "x": 0.925, "y": 0.63}, {"type": "position", "time": 18577, "x": 0.925, "y": 0.63}, {"type": "position", "time": 18626, "x": 0.925, "y": 0.63}, {"type": "click", "time": 18655, "x": 0.925, "y": 0.63}, {"type": "position", "time": 18680, "x": 0.925, "y": 0.63}, {"type": "position", "time": 18728, "x": 0.925, "y": 0.63}, {"type": "position", "time": 18797, "x": 1.02375, "y": 0.6066666666666667}, {"type": "position", "time": 18831, "x": 1.05125, "y": 0.5933333333333334}, {"type": "position", "time": 18877, "x": 1.0525, "y": 0.5916666666666667}, {"type": "position", "time": 18927, "x": 1.0575, "y": 0.56}, {"type": "position", "time": 18982, "x": 1.06, "y": 0.5116666666666667}, {"type": "position", "time": 19030, "x": 1.06, "y": 0.5033333333333333}, {"type": "position", "time": 19077, "x": 1.05875, "y": 0.49666666666666665}, {"type": "position", "time": 19126, "x": 1.05875, "y": 0.495}, {"type": "position", "time": 19327, "x": 1.08625, "y": 0.5066666666666667}, {"type": "position", "time": 19355, "x": 1.08875, "y": 0.505}, {"type": "position", "time": 19377, "x": 1.08875, "y": 0.505}, {"type": "position", "time": 19488, "x": 1.0875, "y": 0.505}, {"type": "position", "time": 19491, "x": 1.0875, "y": 0.505}, {"type": "position", "time": 19550, "x": 1.0825, "y": 0.5033333333333333}, {"type": "position", "time": 19589, "x": 1.08125, "y": 0.5033333333333333}, {"type": "position", "time": 19637, "x": 1.07875, "y": 0.5}, {"type": "position", "time": 19702, "x": 1.07875, "y": 0.49833333333333335}, {"type": "position", "time": 19738, "x": 1.07875, "y": 0.49666666666666665}, {"type": "position", "time": 19787, "x": 1.07875, "y": 0.49666666666666665}, {"type": "position", "time": 19837, "x": 1.0775, "y": 0.49666666666666665}, {"type": "position", "time": 19888, "x": 1.0775, "y": 0.49666666666666665}, {"type": "position", "time": 19939, "x": 1.0775, "y": 0.49666666666666665}, {"type": "position", "time": 19987, "x": 1.0775, "y": 0.49666666666666665}, {"type": "position", "time": 20151, "x": 1.0775, "y": 0.49333333333333335}, {"type": "position", "time": 20157, "x": 1.0775, "y": 0.49333333333333335}, {"type": "position", "time": 20200, "x": 1.0775, "y": 0.49333333333333335}, {"type": "position", "time": 20251, "x": 1.0775, "y": 0.49333333333333335}, {"type": "position", "time": 20301, "x": 1.0775, "y": 0.49333333333333335}, {"type": "position", "time": 20351, "x": 1.0775, "y": 0.49333333333333335}, {"type": "position", "time": 20400, "x": 1.0775, "y": 0.49333333333333335}, {"type": "position", "time": 20450, "x": 1.0775, "y": 0.49333333333333335}, {"type": "position", "time": 20559, "x": 1.0775, "y": 0.49333333333333335}, {"type": "position", "time": 20563, "x": 1.0775, "y": 0.49333333333333335}, {"type": "position", "time": 20610, "x": 1.0775, "y": 0.49333333333333335}, {"type": "position", "time": 20662, "x": 1.0775, "y": 0.49333333333333335}, {"type": "position", "time": 20710, "x": 1.0775, "y": 0.49333333333333335}, {"type": "position", "time": 21466, "x": 1.0775, "y": 0.49333333333333335}, {"type": "position", "time": 21628, "x": 1.0775, "y": 0.49333333333333335}, {"type": "position", "time": 21645, "x": 1.0775, "y": 0.49333333333333335}, {"type": "position", "time": 21678, "x": 1.0775, "y": 0.49333333333333335}, {"type": "position", "time": 21729, "x": 1.0775, "y": 0.49333333333333335}, {"type": "position", "time": 21778, "x": 1.0775, "y": 0.49333333333333335}, {"type": "position", "time": 21828, "x": 1.0775, "y": 0.49333333333333335}, {"type": "position", "time": 21956, "x": 1.0775, "y": 0.49333333333333335}, {"type": "position", "time": 21957, "x": 1.0775, "y": 0.49333333333333335}, {"type": "position", "time": 22006, "x": 1.0775, "y": 0.49333333333333335}, {"type": "position", "time": 22056, "x": 1.0775, "y": 0.49333333333333335}, {"type": "position", "time": 22127, "x": 1.06625, "y": 0.4766666666666667}, {"type": "position", "time": 22167, "x": 1.05375, "y": 0.475}, {"type": "position", "time": 22226, "x": 1.0425, "y": 0.47833333333333333}, {"type": "position", "time": 22256, "x": 1.04125, "y": 0.47833333333333333}, {"type": "position", "time": 22308, "x": 1.04125, "y": 0.48}, {"type": "position", "time": 22386, "x": 1.04125, "y": 0.48}, {"type": "position", "time": 22492, "x": 1.01, "y": 0.5116666666666667}, {"type": "position", "time": 22525, "x": 1.0025, "y": 0.5216666666666666}, {"type": "position", "time": 22542, "x": 1.0025, "y": 0.5216666666666666}, {"type": "position", "time": 22592, "x": 1.0025, "y": 0.5216666666666666}, {"type": "position", "time": 22641, "x": 1.0025, "y": 0.5216666666666666}, {"type": "position", "time": 22692, "x": 1.0025, "y": 0.5216666666666666}, {"type": "position", "time": 22742, "x": 1.0025, "y": 0.5216666666666666}, {"type": "position", "time": 22792, "x": 1.0025, "y": 0.5216666666666666}, {"type": "position", "time": 22841, "x": 1.0025, "y": 0.5216666666666666}, {"type": "position", "time": 22892, "x": 1.0025, "y": 0.5216666666666666}, {"type": "position", "time": 22942, "x": 1.0025, "y": 0.5216666666666666}, {"type": "position", "time": 23005, "x": 1.0125, "y": 0.52}, {"type": "position", "time": 23044, "x": 1.02125, "y": 0.5166666666666667}, {"type": "position", "time": 23092, "x": 1.03375, "y": 0.5116666666666667}, {"type": "position", "time": 23146, "x": 1.04625, "y": 0.5066666666666667}, {"type": "position", "time": 23192, "x": 1.0475, "y": 0.5066666666666667}, {"type": "position", "time": 23242, "x": 1.0475, "y": 0.5066666666666667}, {"type": "position", "time": 23292, "x": 1.0475, "y": 0.5066666666666667}, {"type": "position", "time": 23352, "x": 1.015, "y": 0.5016666666666667}, {"type": "position", "time": 23393, "x": 0.9625, "y": 0.485}, {"type": "position", "time": 23499, "x": 0.94375, "y": 0.47333333333333333}, {"type": "position", "time": 23500, "x": 0.94375, "y": 0.47333333333333333}, {"type": "position", "time": 23549, "x": 0.94375, "y": 0.47333333333333333}, {"type": "position", "time": 23599, "x": 0.94, "y": 0.47333333333333333}, {"type": "position", "time": 23649, "x": 0.94, "y": 0.47333333333333333}, {"type": "position", "time": 23706, "x": 0.94125, "y": 0.47333333333333333}, {"type": "position", "time": 23754, "x": 0.95625, "y": 0.485}, {"type": "position", "time": 23804, "x": 0.96125, "y": 0.49}, {"type": "position", "time": 23849, "x": 0.9725, "y": 0.49833333333333335}, {"type": "position", "time": 23899, "x": 0.97375, "y": 0.49833333333333335}, {"type": "position", "time": 23950, "x": 0.97375, "y": 0.49833333333333335}, {"type": "position", "time": 23999, "x": 0.97375, "y": 0.49833333333333335}, {"type": "position", "time": 24053, "x": 0.97375, "y": 0.49833333333333335}, {"type": "position", "time": 24099, "x": 0.97375, "y": 0.49833333333333335}, {"type": "position", "time": 24150, "x": 0.97375, "y": 0.49833333333333335}, {"type": "position", "time": 24199, "x": 0.97375, "y": 0.49833333333333335}, {"type": "position", "time": 24249, "x": 0.97375, "y": 0.49833333333333335}, {"type": "position", "time": 24299, "x": 0.97375, "y": 0.49833333333333335}, {"type": "position", "time": 24349, "x": 0.97375, "y": 0.49833333333333335}, {"type": "position", "time": 24399, "x": 0.97375, "y": 0.49833333333333335}, {"type": "position", "time": 24449, "x": 0.97375, "y": 0.49833333333333335}, {"type": "position", "time": 24499, "x": 0.97375, "y": 0.49833333333333335}, {"type": "position", "time": 24549, "x": 0.97375, "y": 0.49833333333333335}, {"type": "position", "time": 24599, "x": 0.97375, "y": 0.49833333333333335}, {"type": "click", "time": 24611, "x": 0.97375, "y": 0.49833333333333335}, {"type": "position", "time": 24650, "x": 0.97375, "y": 0.49833333333333335}, {"type": "position", "time": 24711, "x": 0.97375, "y": 0.49833333333333335}, {"type": "position", "time": 24749, "x": 0.97375, "y": 0.49833333333333335}, {"type": "position", "time": 24799, "x": 0.97375, "y": 0.49833333333333335}, {"type": "position", "time": 24849, "x": 0.97375, "y": 0.49833333333333335}, {"type": "position", "time": 24899, "x": 0.97375, "y": 0.49833333333333335}, {"type": "position", "time": 24950, "x": 0.97375, "y": 0.49833333333333335}, {"type": "position", "time": 25012, "x": 0.97375, "y": 0.49833333333333335}, {"type": "position", "time": 25049, "x": 0.97375, "y": 0.49833333333333335}, {"type": "position", "time": 25099, "x": 0.97375, "y": 0.49833333333333335}, {"type": "position", "time": 25149, "x": 0.97375, "y": 0.49833333333333335}, {"type": "position", "time": 25243, "x": 0.9925, "y": 0.48833333333333334}, {"type": "position", "time": 25258, "x": 0.995, "y": 0.485}, {"type": "position", "time": 25299, "x": 1.01125, "y": 0.4683333333333333}, {"type": "position", "time": 25351, "x": 1.01875, "y": 0.46}, {"type": "position", "time": 25412, "x": 1.01875, "y": 0.4583333333333333}, {"type": "position", "time": 25452, "x": 1.01875, "y": 0.4583333333333333}, {"type": "position", "time": 25499, "x": 1.01875, "y": 0.4583333333333333}, {"type": "position", "time": 25555, "x": 1.01875, "y": 0.4583333333333333}, {"type": "position", "time": 25599, "x": 1.01875, "y": 0.4583333333333333}, {"type": "position", "time": 25693, "x": 1.0325, "y": 0.43333333333333335}, {"type": "position", "time": 25709, "x": 1.045, "y": 0.41833333333333333}, {"type": "position", "time": 25763, "x": 1.07125, "y": 0.385}, {"type": "position", "time": 25818, "x": 1.0775, "y": 0.37}, {"type": "position", "time": 25849, "x": 1.0775, "y": 0.27666666666666667}, {"type": "position", "time": 25899, "x": 1.07875, "y": 0.13333333333333333}, {"type": "position", "time": 25949, "x": 1.07875, "y": 0.13333333333333333}, {"type": "position", "time": 25999, "x": 1.07875, "y": 0.13333333333333333}, {"type": "position", "time": 26049, "x": 1.07875, "y": 0.13333333333333333}, {"type": "position", "time": 26101, "x": 1.07875, "y": 0.13333333333333333}, {"type": "position", "time": 26216, "x": 1.04875, "y": 0.016666666666666666}, {"type": "position", "time": 26230, "x": 1.0425, "y": 0.025}, {"type": "position", "time": 26277, "x": 1.0275, "y": 0.043333333333333335}, {"type": "position", "time": 26326, "x": 1.0075, "y": 0.056666666666666664}, {"type": "position", "time": 26372, "x": 1, "y": 0.06}, {"type": "position", "time": 26417, "x": 1, "y": 0.06}, {"type": "position", "time": 26466, "x": 1, "y": 0.06}, {"type": "position", "time": 26516, "x": 1, "y": 0.06}, {"type": "position", "time": 26580, "x": 1.00625, "y": 0.058333333333333334}, {"type": "position", "time": 26616, "x": 1.0075, "y": 0.06}, {"type": "position", "time": 26666, "x": 1.0075, "y": 0.06}, {"type": "position", "time": 26718, "x": 1.01375, "y": 0.06166666666666667}, {"type": "position", "time": 26766, "x": 1.015, "y": 0.06166666666666667}, {"type": "position", "time": 26862, "x": 1.00125, "y": 0.12833333333333333}, {"type": "position", "time": 26877, "x": 0.995, "y": 0.16666666666666666}, {"type": "position", "time": 26926, "x": 0.98625, "y": 0.275}, {"type": "position", "time": 26980, "x": 1.02, "y": 0.31}, {"type": "position", "time": 27088, "x": 1.17, "y": 0.33666666666666667}, {"type": "position", "time": 27088, "x": 1.17, "y": 0.33666666666666667}, {"type": "position", "time": 27146, "x": 1.1725, "y": 0.3283333333333333}, {"type": "position", "time": 27201, "x": 1.215, "y": 0.255}, {"type": "position", "time": 27238, "x": 1.22875, "y": 0.23166666666666666}, {"type": "position", "time": 27288, "x": 1.22875, "y": 0.23166666666666666}, {"type": "position", "time": 27344, "x": 1.23, "y": 0.23833333333333334}, {"type": "position", "time": 27394, "x": 1.23, "y": 0.23833333333333334}, {"type": "position", "time": 27443, "x": 1.23, "y": 0.23833333333333334}, {"type": "position", "time": 27496, "x": 1.22875, "y": 0.5366666666666666}, {"type": "position", "time": 27543, "x": 1.22875, "y": 0.5366666666666666}, {"type": "position", "time": 27588, "x": 1.22875, "y": 0.5366666666666666}, {"type": "position", "time": 27640, "x": 1.22875, "y": 0.5366666666666666}, {"type": "position", "time": 27693, "x": 1.21875, "y": 0.615}, {"type": "position", "time": 27740, "x": 1.1825, "y": 0.575}, {"type": "position", "time": 27788, "x": 1.135, "y": 0.5483333333333333}, {"type": "position", "time": 27842, "x": 1.12, "y": 0.54}, {"type": "position", "time": 27953, "x": 1.09, "y": 0.52}, {"type": "position", "time": 27969, "x": 1.0875, "y": 0.5166666666666667}, {"type": "position", "time": 28010, "x": 1.07125, "y": 0.5083333333333333}, {"type": "position", "time": 28053, "x": 1.05875, "y": 0.5033333333333333}, {"type": "position", "time": 28102, "x": 1.05875, "y": 0.5033333333333333}, {"type": "position", "time": 28161, "x": 1.0575, "y": 0.49833333333333335}, {"type": "position", "time": 28205, "x": 1.055, "y": 0.49166666666666664}, {"type": "position", "time": 28253, "x": 1.0525, "y": 0.48833333333333334}, {"type": "position", "time": 28308, "x": 1.0425, "y": 0.4766666666666667}, {"type": "position", "time": 28353, "x": 1.04, "y": 0.475}, {"type": "position", "time": 28402, "x": 1.04, "y": 0.475}, {"type": "position", "time": 28452, "x": 1.04, "y": 0.475}, {"type": "position", "time": 28502, "x": 1.04, "y": 0.475}, {"type": "position", "time": 28552, "x": 1.04, "y": 0.47333333333333333}, {"type": "position", "time": 29291, "x": 1.05875, "y": 0.43833333333333335}, {"type": "position", "time": 29390, "x": 1.05875, "y": 0.43833333333333335}, {"type": "position", "time": 29397, "x": 1.05875, "y": 0.43833333333333335}, {"type": "position", "time": 29440, "x": 1.05875, "y": 0.43833333333333335}, {"type": "position", "time": 29490, "x": 1.05875, "y": 0.43833333333333335}, {"type": "position", "time": 29540, "x": 1.05875, "y": 0.43833333333333335}, {"type": "position", "time": 29590, "x": 1.05875, "y": 0.43833333333333335}, {"type": "position", "time": 29642, "x": 1.05875, "y": 0.43833333333333335}, {"type": "position", "time": 29690, "x": 1.05875, "y": 0.43833333333333335}, {"type": "position", "time": 29740, "x": 1.05875, "y": 0.43833333333333335}, {"type": "position", "time": 29791, "x": 1.05875, "y": 0.43833333333333335}, {"type": "position", "time": 29841, "x": 1.05875, "y": 0.43833333333333335}, {"type": "position", "time": 29890, "x": 1.05875, "y": 0.43833333333333335}, {"type": "position", "time": 29940, "x": 1.05875, "y": 0.43833333333333335}, {"type": "position", "time": 29990, "x": 1.05875, "y": 0.43833333333333335}, {"type": "position", "time": 30040, "x": 1.05875, "y": 0.43833333333333335}, {"type": "position", "time": 30090, "x": 1.05875, "y": 0.43833333333333335}, {"type": "position", "time": 30140, "x": 1.05875, "y": 0.43833333333333335}, {"type": "position", "time": 30190, "x": 1.05875, "y": 0.43833333333333335}, {"type": "position", "time": 30276, "x": 1.05875, "y": 0.43833333333333335}, {"type": "position", "time": 30291, "x": 1.05875, "y": 0.43833333333333335}, {"type": "position", "time": 30340, "x": 1.05875, "y": 0.43833333333333335}, {"type": "position", "time": 30390, "x": 1.05875, "y": 0.43833333333333335}, {"type": "position", "time": 30446, "x": 1.05875, "y": 0.43833333333333335}, {"type": "position", "time": 30490, "x": 1.05875, "y": 0.43833333333333335}, {"type": "position", "time": 30540, "x": 1.05875, "y": 0.43833333333333335}, {"type": "position", "time": 30590, "x": 1.05875, "y": 0.43833333333333335}, {"type": "position", "time": 30640, "x": 1.05875, "y": 0.43833333333333335}, {"type": "position", "time": 30690, "x": 1.05875, "y": 0.43833333333333335}, {"type": "position", "time": 30740, "x": 1.05875, "y": 0.43833333333333335}, {"type": "position", "time": 30790, "x": 1.05875, "y": 0.43833333333333335}, {"type": "position", "time": 30840, "x": 1.05875, "y": 0.43833333333333335}, {"type": "position", "time": 30890, "x": 1.05875, "y": 0.43833333333333335}, {"type": "position", "time": 30940, "x": 1.05875, "y": 0.43833333333333335}, {"type": "position", "time": 30990, "x": 1.05875, "y": 0.43833333333333335}, {"type": "position", "time": 31040, "x": 1.05875, "y": 0.43833333333333335}, {"type": "position", "time": 31090, "x": 1.05875, "y": 0.43833333333333335}, {"type": "position", "time": 31140, "x": 1.05875, "y": 0.43833333333333335}, {"type": "keyup", "time": 31267, "key": "S", "keyCode": 83}, {"type": "position", "time": 31267, "x": 1.05875, "y": 0.43833333333333335}, {"type": "position", "time": 31273, "x": 1.05875, "y": 0.43833333333333335}, {"type": "keyup", "time": 31304, "key": "H", "keyCode": 72}, {"type": "position", "time": 31318, "x": 1.05875, "y": 0.43833333333333335}, {"type": "position", "time": 31367, "x": 1.05875, "y": 0.43833333333333335}, {"type": "position", "time": 31417, "x": 1.05875, "y": 0.43833333333333335}, {"type": "position", "time": 31467, "x": 1.05875, "y": 0.43833333333333335}, {"type": "keyup", "time": 31507, "key": "E", "keyCode": 69}, {"type": "position", "time": 31517, "x": 1.05875, "y": 0.43833333333333335}, {"type": "keyup", "time": 31566, "key": " ", "keyCode": 32}, {"type": "position", "time": 31567, "x": 1.05875, "y": 0.43833333333333335}, {"type": "position", "time": 31620, "x": 1.05875, "y": 0.43833333333333335}, {"type": "position", "time": 31667, "x": 1.05875, "y": 0.43833333333333335}, {"type": "position", "time": 31717, "x": 1.05875, "y": 0.43833333333333335}, {"type": "position", "time": 31767, "x": 1.05875, "y": 0.43833333333333335}, {"type": "position", "time": 31817, "x": 1.05875, "y": 0.43833333333333335}, {"type": "position", "time": 31867, "x": 1.05875, "y": 0.43833333333333335}, {"type": "keyup", "time": 31901, "key": "D", "keyCode": 68}, {"type": "position", "time": 31917, "x": 1.05875, "y": 0.43833333333333335}, {"type": "keyup", "time": 31973, "key": "I", "keyCode": 73}, {"type": "position", "time": 31974, "x": 1.05875, "y": 0.43833333333333335}, {"type": "position", "time": 32017, "x": 1.05875, "y": 0.43833333333333335}, {"type": "position", "time": 32067, "x": 1.05875, "y": 0.43833333333333335}, {"type": "position", "time": 32118, "x": 1.05875, "y": 0.43833333333333335}, {"type": "keyup", "time": 32143, "key": "D", "keyCode": 68}, {"type": "keyup", "time": 32162, "key": "N", "keyCode": 78}, {"type": "position", "time": 32167, "x": 1.05875, "y": 0.43833333333333335}, {"type": "position", "time": 32217, "x": 1.05875, "y": 0.43833333333333335}, {"type": "position", "time": 32298, "x": 1.05875, "y": 0.43833333333333335}, {"type": "position", "time": 32318, "x": 1.05875, "y": 0.43833333333333335}, {"type": "keyup", "time": 32322, "key": "\u00de", "keyCode": 222}, {"type": "position", "time": 32367, "x": 1.05875, "y": 0.43833333333333335}, {"type": "position", "time": 32417, "x": 1.05875, "y": 0.43833333333333335}, {"type": "keyup", "time": 32465, "key": "T", "keyCode": 84}, {"type": "position", "time": 32467, "x": 1.05875, "y": 0.43833333333333335}, {"type": "position", "time": 32517, "x": 1.05875, "y": 0.43833333333333335}, {"type": "keyup", "time": 32525, "key": " ", "keyCode": 32}, {"type": "position", "time": 32567, "x": 1.05875, "y": 0.43833333333333335}, {"type": "position", "time": 32617, "x": 1.05875, "y": 0.43833333333333335}, {"type": "position", "time": 32670, "x": 1.05875, "y": 0.43833333333333335}, {"type": "position", "time": 32717, "x": 1.05875, "y": 0.43833333333333335}, {"type": "keyup", "time": 32764, "key": "J", "keyCode": 74}, {"type": "position", "time": 32767, "x": 1.05875, "y": 0.43833333333333335}, {"type": "position", "time": 32817, "x": 1.05875, "y": 0.43833333333333335}, {"type": "position", "time": 32867, "x": 1.05875, "y": 0.43833333333333335}, {"type": "position", "time": 32917, "x": 1.05875, "y": 0.43833333333333335}, {"type": "position", "time": 32967, "x": 1.05875, "y": 0.43833333333333335}, {"type": "keyup", "time": 32977, "key": "O", "keyCode": 79}, {"type": "keyup", "time": 33144, "key": "B", "keyCode": 66}, {"type": "position", "time": 33148, "x": 1.05875, "y": 0.43833333333333335}, {"type": "position", "time": 33153, "x": 1.05875, "y": 0.43833333333333335}, {"type": "keyup", "time": 33156, "key": " ", "keyCode": 32}, {"type": "position", "time": 33199, "x": 1.05875, "y": 0.43833333333333335}, {"type": "position", "time": 33249, "x": 1.05875, "y": 0.43833333333333335}, {"type": "keyup", "time": 33278, "key": "L", "keyCode": 76}, {"type": "position", "time": 33298, "x": 1.05875, "y": 0.43833333333333335}, {"type": "position", "time": 33348, "x": 1.05875, "y": 0.43833333333333335}, {"type": "position", "time": 33398, "x": 1.05875, "y": 0.43833333333333335}, {"type": "position", "time": 33448, "x": 1.05875, "y": 0.43833333333333335}, {"type": "keyup", "time": 33472, "key": "O", "keyCode": 79}, {"type": "position", "time": 33498, "x": 1.05875, "y": 0.43833333333333335}, {"type": "keyup", "time": 33532, "key": "N", "keyCode": 78}, {"type": "position", "time": 33548, "x": 1.05875, "y": 0.43833333333333335}, {"type": "position", "time": 33598, "x": 1.05875, "y": 0.43833333333333335}, {"type": "position", "time": 33648, "x": 1.05875, "y": 0.43833333333333335}, {"type": "keyup", "time": 33694, "key": "G", "keyCode": 71}, {"type": "position", "time": 33698, "x": 1.05875, "y": 0.43833333333333335}, {"type": "position", "time": 33748, "x": 1.05875, "y": 0.43833333333333335}, {"type": "keyup", "time": 33754, "key": " ", "keyCode": 32}, {"type": "position", "time": 33798, "x": 1.05875, "y": 0.43833333333333335}, {"type": "position", "time": 33948, "x": 1.05875, "y": 0.43833333333333335}, {"type": "keyup", "time": 34017, "key": "E", "keyCode": 69}, {"type": "keyup", "time": 34018, "key": "N", "keyCode": 78}, {"type": "position", "time": 34020, "x": 1.05875, "y": 0.43833333333333335}, {"type": "position", "time": 34029, "x": 1.05875, "y": 0.43833333333333335}, {"type": "position", "time": 34070, "x": 1.05875, "y": 0.43833333333333335}, {"type": "keyup", "time": 34116, "key": "O", "keyCode": 79}, {"type": "position", "time": 34120, "x": 1.05875, "y": 0.43833333333333335}, {"type": "position", "time": 34170, "x": 1.05875, "y": 0.43833333333333335}, {"type": "keyup", "time": 34222, "key": "U", "keyCode": 85}, {"type": "position", "time": 34223, "x": 1.05875, "y": 0.43833333333333335}, {"type": "position", "time": 34271, "x": 1.05875, "y": 0.43833333333333335}, {"type": "position", "time": 34320, "x": 1.05875, "y": 0.43833333333333335}, {"type": "position", "time": 34370, "x": 1.05875, "y": 0.43833333333333335}, {"type": "keyup", "time": 34398, "key": "G", "keyCode": 71}, {"type": "keyup", "time": 34418, "key": "H", "keyCode": 72}, {"type": "position", "time": 34420, "x": 1.05875, "y": 0.43833333333333335}, {"type": "position", "time": 34470, "x": 1.05875, "y": 0.43833333333333335}, {"type": "position", "time": 34520, "x": 1.05875, "y": 0.43833333333333335}, {"type": "position", "time": 34573, "x": 1.05875, "y": 0.43833333333333335}, {"type": "position", "time": 34620, "x": 1.05875, "y": 0.43833333333333335}, {"type": "position", "time": 34670, "x": 1.05875, "y": 0.43833333333333335}, {"type": "keyup", "time": 34814, "key": "\u00be", "keyCode": 190}, {"type": "position", "time": 34821, "x": 1.05875, "y": 0.43833333333333335}, {"type": "position", "time": 34825, "x": 1.05875, "y": 0.43833333333333335}, {"type": "position", "time": 34871, "x": 1.05875, "y": 0.43833333333333335}, {"type": "position", "time": 34921, "x": 1.05875, "y": 0.43833333333333335}, {"type": "position", "time": 34971, "x": 1.05875, "y": 0.43833333333333335}, {"type": "position", "time": 35021, "x": 1.05875, "y": 0.43833333333333335}, {"type": "position", "time": 35168, "x": 1.05875, "y": 0.43833333333333335}, {"type": "position", "time": 35243, "x": 1.05875, "y": 0.43833333333333335}, {"type": "position", "time": 35245, "x": 1.05875, "y": 0.43833333333333335}, {"type": "position", "time": 35293, "x": 1.05875, "y": 0.43833333333333335}, {"type": "keyup", "time": 35309, "key": "\t", "keyCode": 9}, {"type": "position", "time": 35342, "x": 1.05875, "y": 0.43833333333333335}, {"type": "position", "time": 35392, "x": 1.05875, "y": 0.43833333333333335}, {"type": "position", "time": 35445, "x": 1.05875, "y": 0.43833333333333335}, {"type": "position", "time": 35493, "x": 1.05875, "y": 0.43833333333333335}, {"type": "keyup", "time": 35524, "key": " ", "keyCode": 32}, {"type": "click", "time": 35565, "x": 1.05875, "y": 0.43833333333333335}, {"type": "position", "time": 35573, "x": 1.05875, "y": 0.43833333333333335}, {"type": "position", "time": 35593, "x": 1.05875, "y": 0.43833333333333335}, {"type": "position", "time": 35642, "x": 1.05875, "y": 0.43833333333333335}, {"type": "position", "time": 35692, "x": 1.05875, "y": 0.43833333333333335}, {"type": "position", "time": 35742, "x": 1.05875, "y": 0.43833333333333335}, {"type": "position", "time": 35793, "x": 1.05875, "y": 0.43833333333333335}, {"type": "position", "time": 35843, "x": 1.05875, "y": 0.43833333333333335}, {"type": "position", "time": 35892, "x": 1.05875, "y": 0.43833333333333335}, {"type": "position", "time": 35942, "x": 1.05875, "y": 0.43833333333333335}, {"type": "position", "time": 36683, "x": 1.05875, "y": 0.43833333333333335}, {"type": "position", "time": 36781, "x": 1.05875, "y": 0.43833333333333335}, {"type": "position", "time": 36788, "x": 1.05875, "y": 0.43833333333333335}, {"type": "position", "time": 36831, "x": 1.05875, "y": 0.43833333333333335}, {"type": "position", "time": 36881, "x": 1.05875, "y": 0.43833333333333335}, {"type": "position", "time": 36931, "x": 1.05875, "y": 0.43833333333333335}, {"type": "position", "time": 36981, "x": 1.05875, "y": 0.43833333333333335}, {"type": "position", "time": 37033, "x": 1.05875, "y": 0.43833333333333335}, {"type": "position", "time": 37081, "x": 1.05875, "y": 0.43833333333333335}, {"type": "position", "time": 37131, "x": 1.05875, "y": 0.43833333333333335}, {"type": "position", "time": 37181, "x": 1.05875, "y": 0.43833333333333335}, {"type": "position", "time": 37231, "x": 1.05875, "y": 0.43833333333333335}, {"type": "position", "time": 37299, "x": 1.02375, "y": 0.39666666666666667}, {"type": "position", "time": 37337, "x": 1.01375, "y": 0.37333333333333335}, {"type": "position", "time": 37382, "x": 1, "y": 0.35}, {"type": "position", "time": 37431, "x": 0.99625, "y": 0.35}, {"type": "position", "time": 37481, "x": 0.99625, "y": 0.35}, {"type": "position", "time": 37635, "x": 0.8375, "y": 0.41333333333333333}, {"type": "position", "time": 37660, "x": 0.83, "y": 0.4483333333333333}, {"type": "position", "time": 37685, "x": 0.82875, "y": 0.485}, {"type": "position", "time": 37739, "x": 0.835, "y": 0.5366666666666666}, {"type": "position", "time": 37788, "x": 0.855, "y": 0.565}, {"type": "position", "time": 37842, "x": 0.8775, "y": 0.5916666666666667}, {"type": "position", "time": 37889, "x": 0.89, "y": 0.5933333333333334}, {"type": "position", "time": 37946, "x": 0.90625, "y": 0.5833333333333334}, {"type": "position", "time": 37985, "x": 0.91, "y": 0.5816666666666667}, {"type": "position", "time": 38039, "x": 0.91, "y": 0.58}, {"type": "position", "time": 38085, "x": 0.91, "y": 0.58}, {"type": "position", "time": 38135, "x": 0.91, "y": 0.58}, {"type": "position", "time": 38189, "x": 0.905, "y": 0.5766666666666667}, {"type": "position", "time": 38260, "x": 0.9, "y": 0.5833333333333334}, {"type": "position", "time": 38308, "x": 0.895, "y": 0.6016666666666667}, {"type": "position", "time": 38348, "x": 0.895, "y": 0.615}, {"type": "position", "time": 38390, "x": 0.9, "y": 0.6333333333333333}, {"type": "position", "time": 38450, "x": 0.915, "y": 0.6483333333333333}, {"type": "position", "time": 38500, "x": 0.9325, "y": 0.66}, {"type": "position", "time": 38594, "x": 0.95125, "y": 0.675}, {"type": "position", "time": 38594, "x": 0.95125, "y": 0.675}, {"type": "position", "time": 38644, "x": 0.95125, "y": 0.675}, {"type": "position", "time": 38693, "x": 0.95125, "y": 0.675}, {"type": "position", "time": 38743, "x": 0.95125, "y": 0.675}, {"type": "position", "time": 38796, "x": 0.9525, "y": 0.675}, {"type": "position", "time": 38850, "x": 0.95375, "y": 0.675}, {"type": "position", "time": 38893, "x": 0.95375, "y": 0.675}, {"type": "position", "time": 38943, "x": 0.95375, "y": 0.675}, {"type": "position", "time": 38994, "x": 0.95375, "y": 0.675}, {"type": "position", "time": 39051, "x": 0.95875, "y": 0.6633333333333333}, {"type": "position", "time": 39093, "x": 0.96, "y": 0.6583333333333333}, {"type": "position", "time": 39143, "x": 0.96125, "y": 0.6566666666666666}, {"type": "position", "time": 39199, "x": 0.9625, "y": 0.6533333333333333}, {"type": "position", "time": 39243, "x": 0.9625, "y": 0.6533333333333333}, {"type": "position", "time": 39293, "x": 0.9625, "y": 0.6533333333333333}, {"type": "position", "time": 39343, "x": 0.9625, "y": 0.6516666666666666}, {"type": "position", "time": 39393, "x": 0.9625, "y": 0.6516666666666666}, {"type": "position", "time": 39443, "x": 0.9625, "y": 0.6516666666666666}, {"type": "position", "time": 39536, "x": 0.9625, "y": 0.6516666666666666}, {"type": "position", "time": 39543, "x": 0.9625, "y": 0.6516666666666666}, {"type": "position", "time": 39597, "x": 0.965, "y": 0.6516666666666666}, {"type": "position", "time": 39643, "x": 0.965, "y": 0.6516666666666666}, {"type": "position", "time": 39693, "x": 0.965, "y": 0.6516666666666666}, {"type": "position", "time": 39750, "x": 0.965, "y": 0.6516666666666666}, {"type": "position", "time": 39796, "x": 0.965, "y": 0.6516666666666666}, {"type": "position", "time": 39843, "x": 0.96375, "y": 0.6516666666666666}, {"type": "position", "time": 39894, "x": 0.96, "y": 0.6516666666666666}, {"type": "position", "time": 39947, "x": 0.96, "y": 0.6516666666666666}, {"type": "slider", "time": 39966, "value": 0.53}, {"type": "position", "time": 39993, "x": 0.96, "y": 0.6516666666666666}, {"type": "position", "time": 40043, "x": 0.96, "y": 0.6516666666666666}, {"type": "position", "time": 40093, "x": 0.96, "y": 0.6516666666666666}, {"type": "position", "time": 40143, "x": 0.96, "y": 0.6516666666666666}, {"type": "position", "time": 40193, "x": 0.96, "y": 0.6516666666666666}, {"type": "position", "time": 40243, "x": 0.96, "y": 0.6516666666666666}, {"type": "position", "time": 40293, "x": 0.96, "y": 0.6516666666666666}, {"type": "position", "time": 40343, "x": 0.96, "y": 0.6516666666666666}, {"type": "position", "time": 40393, "x": 0.96, "y": 0.6516666666666666}, {"type": "position", "time": 40459, "x": 0.97125, "y": 0.6516666666666666}, {"type": "position", "time": 40499, "x": 0.9925, "y": 0.6566666666666666}, {"type": "position", "time": 40547, "x": 1.005, "y": 0.6583333333333333}, {"type": "position", "time": 40602, "x": 1.02125, "y": 0.6616666666666666}, {"type": "position", "time": 40648, "x": 1.0275, "y": 0.6633333333333333}, {"type": "position", "time": 40694, "x": 1.02875, "y": 0.6633333333333333}, {"type": "position", "time": 40743, "x": 1.02875, "y": 0.6633333333333333}, {"type": "position", "time": 40793, "x": 1.02875, "y": 0.6633333333333333}, {"type": "slider", "time": 40846, "value": 0.64}, {"type": "position", "time": 40850, "x": 1.02875, "y": 0.6633333333333333}, {"type": "position", "time": 40893, "x": 1.02875, "y": 0.6633333333333333}, {"type": "position", "time": 40943, "x": 1.02875, "y": 0.6633333333333333}, {"type": "position", "time": 40993, "x": 1.02875, "y": 0.6633333333333333}, {"type": "position", "time": 41044, "x": 1.02875, "y": 0.6633333333333333}, {"type": "position", "time": 41093, "x": 1.02875, "y": 0.6633333333333333}, {"type": "position", "time": 41143, "x": 1.02875, "y": 0.6633333333333333}, {"type": "position", "time": 41193, "x": 1.02875, "y": 0.6633333333333333}, {"type": "position", "time": 41243, "x": 1.02875, "y": 0.6633333333333333}, {"type": "position", "time": 41312, "x": 1.01625, "y": 0.705}, {"type": "position", "time": 41347, "x": 1.01625, "y": 0.7133333333333334}, {"type": "position", "time": 41394, "x": 1.02, "y": 0.7233333333333334}, {"type": "position", "time": 41445, "x": 1.02125, "y": 0.735}, {"type": "position", "time": 41494, "x": 1.01, "y": 0.7416666666666667}, {"type": "position", "time": 41551, "x": 0.96875, "y": 0.7433333333333333}, {"type": "position", "time": 41593, "x": 0.96, "y": 0.7416666666666667}, {"type": "position", "time": 41644, "x": 0.9575, "y": 0.7416666666666667}, {"type": "position", "time": 41693, "x": 0.95625, "y": 0.7416666666666667}, {"type": "position", "time": 41743, "x": 0.955, "y": 0.7416666666666667}, {"type": "position", "time": 41793, "x": 0.955, "y": 0.7416666666666667}, {"type": "position", "time": 41843, "x": 0.955, "y": 0.7416666666666667}, {"type": "position", "time": 41893, "x": 0.955, "y": 0.7416666666666667}, {"type": "position", "time": 41943, "x": 0.955, "y": 0.7416666666666667}, {"type": "position", "time": 41993, "x": 0.955, "y": 0.7416666666666667}, {"type": "position", "time": 42043, "x": 0.955, "y": 0.7416666666666667}, {"type": "position", "time": 42094, "x": 0.955, "y": 0.7416666666666667}, {"type": "position", "time": 42143, "x": 0.955, "y": 0.7416666666666667}, {"type": "position", "time": 42193, "x": 0.955, "y": 0.7416666666666667}, {"type": "click", "time": 42254, "x": 0.955, "y": 0.7416666666666667}, {"type": "position", "time": 42268, "x": 0.955, "y": 0.7416666666666667}, {"type": "position", "time": 42364, "x": 1.03375, "y": 0.7466666666666667}, {"type": "position", "time": 42379, "x": 1.06625, "y": 0.735}, {"type": "position", "time": 42413, "x": 1.1125, "y": 0.695}, {"type": "position", "time": 42475, "x": 1.14, "y": 0.63}, {"type": "position", "time": 42522, "x": 1.1275, "y": 0.545}, {"type": "position", "time": 42577, "x": 1.08375, "y": 0.44}, {"type": "position", "time": 42625, "x": 1.07625, "y": 0.43166666666666664}, {"type": "position", "time": 42672, "x": 1.07, "y": 0.4266666666666667}, {"type": "position", "time": 42713, "x": 1.05625, "y": 0.41833333333333333}, {"type": "position", "time": 42768, "x": 1.0475, "y": 0.4116666666666667}, {"type": "position", "time": 42822, "x": 1.025, "y": 0.3983333333333333}, {"type": "position", "time": 42876, "x": 0.95125, "y": 0.38}, {"type": "position", "time": 42925, "x": 0.91125, "y": 0.38}, {"type": "position", "time": 42966, "x": 0.8375, "y": 0.4166666666666667}, {"type": "position", "time": 43026, "x": 0.7875, "y": 0.4716666666666667}, {"type": "position", "time": 43069, "x": 0.7925, "y": 0.4866666666666667}, {"type": "position", "time": 43114, "x": 0.795, "y": 0.48833333333333334}, {"type": "position", "time": 43164, "x": 0.795, "y": 0.48833333333333334}, {"type": "position", "time": 43299, "x": 0.67125, "y": 0.44}, {"type": "position", "time": 43300, "x": 0.67125, "y": 0.44}, {"type": "position", "time": 43431, "x": 0.79875, "y": 0.465}, {"type": "position", "time": 43447, "x": 0.845, "y": 0.4716666666666667}, {"type": "position", "time": 43494, "x": 0.92125, "y": 0.475}, {"type": "position", "time": 44263, "x": 1.1625, "y": 0.46166666666666667}, {"type": "position", "time": 44330, "x": 1.1525, "y": 0.455}, {"type": "position", "time": 44419, "x": 1.15, "y": 0.4533333333333333}, {"type": "position", "time": 44424, "x": 1.15, "y": 0.4533333333333333}, {"type": "position", "time": 44469, "x": 1.15, "y": 0.4533333333333333}, {"type": "position", "time": 44519, "x": 1.14875, "y": 0.4533333333333333}, {"type": "position", "time": 44569, "x": 1.14875, "y": 0.4533333333333333}, {"type": "position", "time": 44621, "x": 1.14875, "y": 0.4533333333333333}, {"type": "position", "time": 44669, "x": 1.14875, "y": 0.4533333333333333}, {"type": "position", "time": 44719, "x": 1.1475, "y": 0.45666666666666667}, {"type": "position", "time": 44781, "x": 1.14625, "y": 0.45666666666666667}, {"type": "position", "time": 44819, "x": 1.14625, "y": 0.45666666666666667}, {"type": "position", "time": 44869, "x": 1.14375, "y": 0.455}, {"type": "position", "time": 44919, "x": 1.14375, "y": 0.455}, {"type": "position", "time": 44969, "x": 1.14375, "y": 0.455}, {"type": "position", "time": 45019, "x": 1.14375, "y": 0.455}, {"type": "position", "time": 45069, "x": 1.14375, "y": 0.455}, {"type": "position", "time": 45119, "x": 1.14375, "y": 0.455}, {"type": "position", "time": 45169, "x": 1.14375, "y": 0.455}, {"type": "position", "time": 45219, "x": 1.14375, "y": 0.455}, {"type": "position", "time": 45269, "x": 1.14375, "y": 0.455}, {"type": "position", "time": 45397, "x": 1.14375, "y": 0.455}, {"type": "position", "time": 45402, "x": 1.14375, "y": 0.455}, {"type": "position", "time": 45446, "x": 1.14375, "y": 0.455}, {"type": "position", "time": 45496, "x": 1.14375, "y": 0.455}, {"type": "position", "time": 45546, "x": 1.14375, "y": 0.455}, {"type": "position", "time": 45601, "x": 1.14375, "y": 0.455}, {"type": "position", "time": 45646, "x": 1.14375, "y": 0.455}, {"type": "position", "time": 45696, "x": 1.14375, "y": 0.455}, {"type": "position", "time": 45746, "x": 1.14375, "y": 0.455}, {"type": "position", "time": 45796, "x": 1.14375, "y": 0.455}, {"type": "position", "time": 45846, "x": 1.14375, "y": 0.455}, {"type": "position", "time": 45896, "x": 1.14375, "y": 0.455}, {"type": "position", "time": 45946, "x": 1.14375, "y": 0.455}, {"type": "position", "time": 46019, "x": 1.15875, "y": 0.455}, {"type": "position", "time": 46055, "x": 1.1825, "y": 0.455}, {"type": "position", "time": 46110, "x": 1.2075, "y": 0.455}, {"type": "position", "time": 46276, "x": 1.2975, "y": 0.4683333333333333}, {"type": "position", "time": 46300, "x": 1.3125, "y": 0.47}, {"type": "position", "time": 46326, "x": 1.3175, "y": 0.47}, {"type": "position", "time": 46417, "x": 1.3175, "y": 0.47}, {"type": "position", "time": 46426, "x": 1.3175, "y": 0.47}, {"type": "position", "time": 46476, "x": 1.31875, "y": 0.4666666666666667}, {"type": "position", "time": 46526, "x": 1.31875, "y": 0.4666666666666667}, {"type": "position", "time": 46576, "x": 1.315, "y": 0.4666666666666667}, {"type": "position", "time": 46664, "x": 1.30375, "y": 0.4633333333333333}, {"type": "position", "time": 46690, "x": 1.3, "y": 0.4633333333333333}, {"type": "position", "time": 46729, "x": 1.29625, "y": 0.4633333333333333}, {"type": "position", "time": 46779, "x": 1.29125, "y": 0.4583333333333333}, {"type": "position", "time": 46829, "x": 1.2875, "y": 0.45666666666666667}, {"type": "position", "time": 46876, "x": 1.28625, "y": 0.45666666666666667}, {"type": "position", "time": 46958, "x": 1.27375, "y": 0.45166666666666666}, {"type": "position", "time": 47142, "x": 1.135, "y": 0.4216666666666667}, {"type": "position", "time": 47163, "x": 1.1, "y": 0.42}, {"type": "position", "time": 47219, "x": 1.0325, "y": 0.42833333333333334}, {"type": "position", "time": 47282, "x": 0.9975, "y": 0.44333333333333336}, {"type": "position", "time": 47295, "x": 0.99625, "y": 0.445}, {"type": "position", "time": 47341, "x": 0.99125, "y": 0.45}, {"type": "position", "time": 47400, "x": 0.98125, "y": 0.455}, {"type": "position", "time": 47445, "x": 0.96875, "y": 0.46166666666666667}, {"type": "position", "time": 47549, "x": 0.93375, "y": 0.47333333333333333}, {"type": "position", "time": 47574, "x": 0.92, "y": 0.47333333333333333}, {"type": "position", "time": 47604, "x": 0.89625, "y": 0.475}, {"type": "position", "time": 47660, "x": 0.865, "y": 0.48}, {"type": "position", "time": 47702, "x": 0.85375, "y": 0.48333333333333334}, {"type": "position", "time": 47754, "x": 0.825, "y": 0.49166666666666664}, {"type": "position", "time": 47804, "x": 0.8025, "y": 0.49833333333333335}, {"type": "position", "time": 47943, "x": 0.7975, "y": 0.5016666666666667}, {"type": "position", "time": 47946, "x": 0.7975, "y": 0.5016666666666667}, {"type": "position", "time": 47995, "x": 0.80125, "y": 0.5016666666666667}, {"type": "position", "time": 48050, "x": 0.8475, "y": 0.5016666666666667}, {"type": "position", "time": 48096, "x": 0.945, "y": 0.49833333333333335}, {"type": "position", "time": 48144, "x": 1.005, "y": 0.49833333333333335}, {"type": "position", "time": 48277, "x": 1.1175, "y": 0.5033333333333333}, {"type": "position", "time": 48286, "x": 1.12125, "y": 0.5033333333333333}, {"type": "position", "time": 48328, "x": 1.12875, "y": 0.5016666666666667}, {"type": "position", "time": 48376, "x": 1.12875, "y": 0.5016666666666667}, {"type": "position", "time": 48426, "x": 1.12875, "y": 0.5016666666666667}, {"type": "position", "time": 48491, "x": 1.1025, "y": 0.5166666666666667}, {"type": "position", "time": 48537, "x": 1.075, "y": 0.53}, {"type": "position", "time": 48585, "x": 1.04125, "y": 0.5416666666666666}, {"type": "position", "time": 48632, "x": 0.985, "y": 0.5483333333333333}, {"type": "position", "time": 48690, "x": 0.98, "y": 0.5533333333333333}, {"type": "position", "time": 48727, "x": 0.98, "y": 0.5533333333333333}, {"type": "position", "time": 48776, "x": 0.98, "y": 0.5533333333333333}, {"type": "position", "time": 48826, "x": 0.98, "y": 0.5533333333333333}, {"type": "position", "time": 48876, "x": 0.98, "y": 0.5533333333333333}, {"type": "position", "time": 48942, "x": 0.97, "y": 0.56}, {"type": "position", "time": 48982, "x": 0.96125, "y": 0.5633333333333334}, {"type": "position", "time": 49027, "x": 0.955, "y": 0.5633333333333334}, {"type": "position", "time": 49077, "x": 0.955, "y": 0.5633333333333334}, {"type": "position", "time": 49126, "x": 0.955, "y": 0.5633333333333334}, {"type": "position", "time": 49176, "x": 0.955, "y": 0.5633333333333334}, {"type": "position", "time": 49226, "x": 0.955, "y": 0.5633333333333334}, {"type": "position", "time": 49279, "x": 0.9425, "y": 0.5583333333333333}, {"type": "position", "time": 49327, "x": 0.94125, "y": 0.5583333333333333}, {"type": "position", "time": 49376, "x": 0.94125, "y": 0.5583333333333333}, {"type": "position", "time": 49426, "x": 0.94125, "y": 0.5583333333333333}, {"type": "position", "time": 49476, "x": 0.94125, "y": 0.5583333333333333}, {"type": "slider", "time": 49519, "value": 0.5}, {"type": "position", "time": 49533, "x": 0.94125, "y": 0.5583333333333333}, {"type": "position", "time": 49578, "x": 0.94125, "y": 0.5583333333333333}, {"type": "position", "time": 49629, "x": 0.94125, "y": 0.5583333333333333}, {"type": "position", "time": 49676, "x": 0.94125, "y": 0.5583333333333333}, {"type": "position", "time": 49726, "x": 0.94125, "y": 0.5583333333333333}, {"type": "position", "time": 49776, "x": 0.94125, "y": 0.5583333333333333}, {"type": "position", "time": 49826, "x": 0.94125, "y": 0.5583333333333333}, {"type": "position", "time": 49876, "x": 0.94125, "y": 0.5583333333333333}, {"type": "position", "time": 49926, "x": 0.94125, "y": 0.5583333333333333}, {"type": "position", "time": 49976, "x": 0.94125, "y": 0.5583333333333333}, {"type": "position", "time": 50027, "x": 0.94125, "y": 0.5583333333333333}, {"type": "position", "time": 50076, "x": 0.94125, "y": 0.5583333333333333}, {"type": "position", "time": 50204, "x": 0.94125, "y": 0.5583333333333333}, {"type": "position", "time": 50207, "x": 0.94125, "y": 0.5583333333333333}, {"type": "position", "time": 50254, "x": 0.95875, "y": 0.555}, {"type": "position", "time": 50307, "x": 0.9925, "y": 0.5516666666666666}, {"type": "position", "time": 50356, "x": 1.02125, "y": 0.5533333333333333}, {"type": "position", "time": 50405, "x": 1.06625, "y": 0.5633333333333334}, {"type": "position", "time": 50457, "x": 1.11625, "y": 0.565}, {"type": "position", "time": 50504, "x": 1.14, "y": 0.565}, {"type": "position", "time": 50554, "x": 1.1425, "y": 0.565}, {"type": "position", "time": 50608, "x": 1.1575, "y": 0.5633333333333334}, {"type": "position", "time": 50654, "x": 1.1575, "y": 0.5633333333333334}, {"type": "position", "time": 50703, "x": 1.15875, "y": 0.5633333333333334}, {"type": "position", "time": 50753, "x": 1.15875, "y": 0.5633333333333334}, {"type": "position", "time": 50803, "x": 1.15875, "y": 0.5633333333333334}, {"type": "slider", "time": 51585, "value": 0.84}, {"type": "position", "time": 51587, "x": 1.15875, "y": 0.5633333333333334}, {"type": "slider", "time": 51596, "value": 0.83}, {"type": "slider", "time": 51623, "value": 0.79}, {"type": "position", "time": 51753, "x": 1.1375, "y": 0.5616666666666666}, {"type": "position", "time": 51769, "x": 1.1375, "y": 0.5616666666666666}, {"type": "position", "time": 51803, "x": 1.1375, "y": 0.5616666666666666}, {"type": "position", "time": 51853, "x": 1.1375, "y": 0.5616666666666666}, {"type": "position", "time": 51903, "x": 1.1375, "y": 0.5616666666666666}, {"type": "position", "time": 51953, "x": 1.1375, "y": 0.5616666666666666}, {"type": "position", "time": 52003, "x": 1.1375, "y": 0.5616666666666666}, {"type": "position", "time": 52053, "x": 1.1375, "y": 0.5616666666666666}, {"type": "position", "time": 52103, "x": 1.1375, "y": 0.5616666666666666}, {"type": "position", "time": 52153, "x": 1.1375, "y": 0.5616666666666666}, {"type": "position", "time": 52202, "x": 1.1375, "y": 0.5616666666666666}, {"type": "position", "time": 52286, "x": 1.1325, "y": 0.5566666666666666}, {"type": "position", "time": 52315, "x": 1.1225, "y": 0.5483333333333333}, {"type": "position", "time": 52353, "x": 1.11, "y": 0.54}, {"type": "position", "time": 52420, "x": 1.0825, "y": 0.5366666666666666}, {"type": "position", "time": 52460, "x": 1.05375, "y": 0.5366666666666666}, {"type": "position", "time": 52504, "x": 1.03, "y": 0.5483333333333333}, {"type": "position", "time": 52553, "x": 1.00625, "y": 0.575}, {"type": "position", "time": 52608, "x": 0.995, "y": 0.63}, {"type": "position", "time": 52704, "x": 1.025, "y": 0.705}, {"type": "position", "time": 52713, "x": 1.02625, "y": 0.7083333333333334}, {"type": "position", "time": 52757, "x": 1.02875, "y": 0.7166666666666667}, {"type": "position", "time": 52820, "x": 1.01625, "y": 0.72}, {"type": "position", "time": 52861, "x": 0.94625, "y": 0.71}, {"type": "position", "time": 52917, "x": 0.875, "y": 0.6883333333333334}, {"type": "position", "time": 52964, "x": 0.855, "y": 0.685}, {"type": "position", "time": 53011, "x": 0.8325, "y": 0.685}, {"type": "position", "time": 53068, "x": 0.8175, "y": 0.695}, {"type": "position", "time": 53114, "x": 0.81125, "y": 0.7116666666666667}, {"type": "position", "time": 53156, "x": 0.81, "y": 0.73}, {"type": "position", "time": 53205, "x": 0.81, "y": 0.735}, {"type": "position", "time": 53254, "x": 0.81, "y": 0.735}, {"type": "position", "time": 53327, "x": 0.79125, "y": 0.7266666666666667}, {"type": "position", "time": 53357, "x": 0.78625, "y": 0.7233333333333334}, {"type": "position", "time": 53415, "x": 0.74875, "y": 0.72}, {"type": "position", "time": 53470, "x": 0.69875, "y": 0.715}, {"type": "position", "time": 53505, "x": 0.69625, "y": 0.715}, {"type": "position", "time": 53614, "x": 0.69375, "y": 0.7416666666666667}, {"type": "position", "time": 53628, "x": 0.69375, "y": 0.75}, {"type": "position", "time": 53667, "x": 0.695, "y": 0.77}, {"type": "position", "time": 53715, "x": 0.6975, "y": 0.7783333333333333}, {"type": "position", "time": 53763, "x": 0.6975, "y": 0.7783333333333333}, {"type": "position", "time": 53814, "x": 0.6975, "y": 0.7783333333333333}, {"type": "position", "time": 53871, "x": 0.69625, "y": 0.7766666666666666}, {"type": "position", "time": 53939, "x": 0.65625, "y": 0.735}, {"type": "position", "time": 53965, "x": 0.655, "y": 0.7333333333333333}, {"type": "position", "time": 54015, "x": 0.65375, "y": 0.7333333333333333}, {"type": "position", "time": 54064, "x": 0.65375, "y": 0.7333333333333333}, {"type": "position", "time": 54114, "x": 0.65375, "y": 0.7333333333333333}, {"type": "position", "time": 54171, "x": 0.65375, "y": 0.7383333333333333}, {"type": "position", "time": 54232, "x": 0.665, "y": 0.7716666666666666}, {"type": "position", "time": 54264, "x": 0.665, "y": 0.7716666666666666}, {"type": "position", "time": 54314, "x": 0.665, "y": 0.7716666666666666}, {"type": "position", "time": 54364, "x": 0.665, "y": 0.7716666666666666}, {"type": "position", "time": 54414, "x": 0.665, "y": 0.7716666666666666}, {"type": "position", "time": 54563, "x": 0.65125, "y": 0.7633333333333333}, {"type": "position", "time": 54567, "x": 0.65125, "y": 0.7633333333333333}, {"type": "position", "time": 54642, "x": 0.65125, "y": 0.76}, {"type": "position", "time": 54662, "x": 0.65125, "y": 0.76}, {"type": "position", "time": 54732, "x": 0.65125, "y": 0.7516666666666667}, {"type": "position", "time": 54762, "x": 0.65125, "y": 0.7483333333333333}, {"type": "position", "time": 54813, "x": 0.65125, "y": 0.7466666666666667}, {"type": "position", "time": 54863, "x": 0.65125, "y": 0.7466666666666667}, {"type": "position", "time": 54913, "x": 0.65125, "y": 0.7466666666666667}, {"type": "position", "time": 54965, "x": 0.6525, "y": 0.7383333333333333}, {"type": "position", "time": 55013, "x": 0.6525, "y": 0.735}, {"type": "position", "time": 55063, "x": 0.6525, "y": 0.735}, {"type": "position", "time": 55115, "x": 0.6525, "y": 0.7233333333333334}, {"type": "position", "time": 55163, "x": 0.6525, "y": 0.7216666666666667}, {"type": "position", "time": 55213, "x": 0.6525, "y": 0.7216666666666667}, {"type": "click", "time": 55256, "x": 0.6525, "y": 0.7216666666666667}, {"type": "position", "time": 55263, "x": 0.6525, "y": 0.7216666666666667}, {"type": "position", "time": 55315, "x": 0.65125, "y": 0.7216666666666667}, {"type": "position", "time": 55363, "x": 0.65125, "y": 0.7216666666666667}, {"type": "position", "time": 55413, "x": 0.65125, "y": 0.7216666666666667}, {"type": "position", "time": 55539, "x": 0.65125, "y": 0.7216666666666667}, {"type": "position", "time": 55540, "x": 0.65125, "y": 0.7216666666666667}, {"type": "position", "time": 55590, "x": 0.65125, "y": 0.7216666666666667}, {"type": "position", "time": 55639, "x": 0.65125, "y": 0.7216666666666667}, {"type": "position", "time": 55689, "x": 0.65125, "y": 0.7216666666666667}, {"type": "position", "time": 55739, "x": 0.65125, "y": 0.7216666666666667}, {"type": "position", "time": 55789, "x": 0.65125, "y": 0.7216666666666667}, {"type": "position", "time": 55839, "x": 0.65125, "y": 0.7216666666666667}, {"type": "position", "time": 55889, "x": 0.65125, "y": 0.7216666666666667}, {"type": "position", "time": 55939, "x": 0.65125, "y": 0.7216666666666667}, {"type": "position", "time": 55989, "x": 0.65125, "y": 0.7216666666666667}, {"type": "position", "time": 56039, "x": 0.65125, "y": 0.7216666666666667}, {"type": "position", "time": 56089, "x": 0.65125, "y": 0.7216666666666667}, {"type": "position", "time": 56139, "x": 0.65125, "y": 0.7216666666666667}, {"type": "position", "time": 56189, "x": 0.65125, "y": 0.7216666666666667}, {"type": "position", "time": 56261, "x": 0.65375, "y": 0.715}, {"type": "position", "time": 56291, "x": 0.655, "y": 0.715}, {"type": "position", "time": 56339, "x": 0.655, "y": 0.715}, {"type": "position", "time": 56389, "x": 0.655, "y": 0.715}, {"type": "position", "time": 56439, "x": 0.655, "y": 0.715}, {"type": "position", "time": 56489, "x": 0.655, "y": 0.715}, {"type": "position", "time": 56539, "x": 0.655, "y": 0.715}, {"type": "position", "time": 56589, "x": 0.655, "y": 0.715}, {"type": "position", "time": 56639, "x": 0.655, "y": 0.715}, {"type": "position", "time": 56689, "x": 0.655, "y": 0.715}, {"type": "position", "time": 56739, "x": 0.655, "y": 0.715}, {"type": "position", "time": 56789, "x": 0.65625, "y": 0.715}, {"type": "position", "time": 56839, "x": 0.65625, "y": 0.715}, {"type": "position", "time": 56897, "x": 0.6575, "y": 0.715}, {"type": "position", "time": 56940, "x": 0.66, "y": 0.7133333333333334}, {"type": "position", "time": 56989, "x": 0.6625, "y": 0.71}, {"type": "position", "time": 57048, "x": 0.66375, "y": 0.71}, {"type": "position", "time": 57106, "x": 0.67375, "y": 0.7033333333333334}, {"type": "position", "time": 57139, "x": 0.67625, "y": 0.7016666666666667}, {"type": "position", "time": 57189, "x": 0.6775, "y": 0.7016666666666667}, {"type": "position", "time": 57239, "x": 0.6775, "y": 0.7016666666666667}, {"type": "position", "time": 57312, "x": 0.69125, "y": 0.7016666666666667}, {"type": "position", "time": 57344, "x": 0.7125, "y": 0.6966666666666667}, {"type": "position", "time": 57391, "x": 0.73875, "y": 0.69}, {"type": "position", "time": 57439, "x": 0.7425, "y": 0.69}, {"type": "position", "time": 57511, "x": 0.74875, "y": 0.69}, {"type": "position", "time": 57541, "x": 0.74875, "y": 0.69}, {"type": "position", "time": 57589, "x": 0.74875, "y": 0.69}, {"type": "position", "time": 57639, "x": 0.74875, "y": 0.69}, {"type": "position", "time": 57689, "x": 0.74875, "y": 0.69}, {"type": "position", "time": 57739, "x": 0.74875, "y": 0.69}, {"type": "position", "time": 57802, "x": 0.74125, "y": 0.69}, {"type": "position", "time": 57851, "x": 0.72625, "y": 0.6816666666666666}, {"type": "position", "time": 57889, "x": 0.695, "y": 0.6616666666666666}, {"type": "position", "time": 57943, "x": 0.67625, "y": 0.6516666666666666}, {"type": "position", "time": 57989, "x": 0.66125, "y": 0.6466666666666666}, {"type": "position", "time": 58054, "x": 0.68875, "y": 0.655}, {"type": "position", "time": 58179, "x": 0.8925, "y": 0.705}, {"type": "position", "time": 58182, "x": 0.8925, "y": 0.705}, {"type": "position", "time": 58922, "x": 0.935, "y": 0.67}, {"type": "position", "time": 58979, "x": 0.935, "y": 0.67}, {"type": "position", "time": 58997, "x": 0.935, "y": 0.6683333333333333}, {"type": "position", "time": 59030, "x": 0.935, "y": 0.6683333333333333}, {"type": "position", "time": 59083, "x": 0.935, "y": 0.6683333333333333}, {"type": "position", "time": 59130, "x": 0.9325, "y": 0.6683333333333333}, {"type": "click", "time": 59187, "x": 0.92625, "y": 0.6666666666666666}, {"type": "position", "time": 59202, "x": 0.92125, "y": 0.665}, {"type": "position", "time": 59229, "x": 0.92125, "y": 0.665}, {"type": "position", "time": 59286, "x": 0.925, "y": 0.665}, {"type": "position", "time": 59337, "x": 0.94, "y": 0.6633333333333333}, {"type": "position", "time": 59382, "x": 0.98, "y": 0.6633333333333333}, {"type": "position", "time": 59432, "x": 0.99, "y": 0.6633333333333333}, {"type": "position", "time": 59597, "x": 1.02625, "y": 0.6616666666666666}, {"type": "position", "time": 59600, "x": 1.02625, "y": 0.6616666666666666}, {"type": "position", "time": 59648, "x": 1.02625, "y": 0.6616666666666666}, {"type": "position", "time": 59697, "x": 1.02625, "y": 0.6616666666666666}, {"type": "position", "time": 59833, "x": 1.02625, "y": 0.66}, {"type": "position", "time": 59840, "x": 1.02625, "y": 0.66}, {"type": "position", "time": 59889, "x": 1.03125, "y": 0.6583333333333333}, {"type": "position", "time": 59938, "x": 1.045, "y": 0.635}, {"type": "position", "time": 59991, "x": 1.04875, "y": 0.6066666666666667}, {"type": "position", "time": 60047, "x": 1.00875, "y": 0.5283333333333333}, {"type": "position", "time": 60087, "x": 0.91875, "y": 0.45166666666666666}, {"type": "position", "time": 60142, "x": 0.7775, "y": 0.37833333333333335}, {"type": "position", "time": 60189, "x": 0.685, "y": 0.36666666666666664}, {"type": "position", "time": 60237, "x": 0.60375, "y": 0.37166666666666665}, {"type": "position", "time": 60292, "x": 0.575, "y": 0.37333333333333335}, {"type": "position", "time": 60333, "x": 0.56125, "y": 0.375}, {"type": "position", "time": 60383, "x": 0.555, "y": 0.375}, {"type": "position", "time": 60449, "x": 0.56375, "y": 0.37833333333333335}, {"type": "position", "time": 60625, "x": 0.86375, "y": 0.43333333333333335}, {"type": "position", "time": 60641, "x": 0.865, "y": 0.43333333333333335}, {"type": "position", "time": 60744, "x": 0.88875, "y": 0.43333333333333335}, {"type": "position", "time": 60765, "x": 0.90125, "y": 0.43666666666666665}, {"type": "position", "time": 60797, "x": 0.9175, "y": 0.43833333333333335}, {"type": "position", "time": 60844, "x": 0.95625, "y": 0.44166666666666665}, {"type": "position", "time": 60926, "x": 1.02375, "y": 0.4533333333333333}, {"type": "position", "time": 60964, "x": 1.05125, "y": 0.46166666666666667}, {"type": "position", "time": 60994, "x": 1.06625, "y": 0.46166666666666667}, {"type": "position", "time": 61044, "x": 1.09375, "y": 0.4666666666666667}, {"type": "position", "time": 61094, "x": 1.10625, "y": 0.4716666666666667}, {"type": "position", "time": 61153, "x": 1.115, "y": 0.4716666666666667}, {"type": "position", "time": 61198, "x": 1.1175, "y": 0.4716666666666667}, {"type": "position", "time": 61245, "x": 1.11875, "y": 0.4716666666666667}, {"type": "position", "time": 61334, "x": 1.1575, "y": 0.465}, {"type": "position", "time": 61344, "x": 1.15875, "y": 0.4633333333333333}, {"type": "position", "time": 61400, "x": 1.175, "y": 0.46}, {"type": "position", "time": 61580, "x": 1.275, "y": 0.43333333333333335}, {"type": "position", "time": 61609, "x": 1.27625, "y": 0.43333333333333335}, {"type": "position", "time": 61630, "x": 1.27625, "y": 0.43166666666666664}, {"type": "position", "time": 61736, "x": 1.30125, "y": 0.4066666666666667}, {"type": "position", "time": 61739, "x": 1.30125, "y": 0.4066666666666667}, {"type": "position", "time": 61797, "x": 1.3025, "y": 0.4066666666666667}, {"type": "position", "time": 61908, "x": 1.2975, "y": 0.41}, {"type": "position", "time": 61909, "x": 1.2975, "y": 0.41}, {"type": "position", "time": 61957, "x": 1.29125, "y": 0.4033333333333333}, {"type": "position", "time": 62008, "x": 1.2875, "y": 0.395}, {"type": "position", "time": 62057, "x": 1.285, "y": 0.39}, {"type": "position", "time": 62107, "x": 1.285, "y": 0.39}, {"type": "position", "time": 62157, "x": 1.285, "y": 0.39}, {"type": "position", "time": 62207, "x": 1.285, "y": 0.39}, {"type": "position", "time": 62257, "x": 1.285, "y": 0.39}, {"type": "position", "time": 62307, "x": 1.285, "y": 0.39}, {"type": "position", "time": 62357, "x": 1.285, "y": 0.39}, {"type": "position", "time": 62407, "x": 1.285, "y": 0.39}, {"type": "position", "time": 62457, "x": 1.285, "y": 0.39}, {"type": "position", "time": 62507, "x": 1.285, "y": 0.39}, {"type": "position", "time": 62633, "x": 1.285, "y": 0.39}, {"type": "position", "time": 62638, "x": 1.285, "y": 0.39}, {"type": "position", "time": 62686, "x": 1.28375, "y": 0.40166666666666667}, {"type": "position", "time": 62733, "x": 1.2825, "y": 0.4216666666666667}, {"type": "position", "time": 62784, "x": 1.28125, "y": 0.43833333333333335}, {"type": "position", "time": 63570, "x": 1.0675, "y": 0.6016666666666667}, {"type": "position", "time": 63614, "x": 1.06875, "y": 0.6}, {"type": "position", "time": 63620, "x": 1.06875, "y": 0.6}, {"type": "position", "time": 63688, "x": 1.0725, "y": 0.5966666666666667}, {"type": "position", "time": 63725, "x": 1.08125, "y": 0.5783333333333334}, {"type": "position", "time": 63771, "x": 1.0825, "y": 0.575}, {"type": "position", "time": 63822, "x": 1.08375, "y": 0.575}, {"type": "position", "time": 63881, "x": 1.08875, "y": 0.5683333333333334}, {"type": "position", "time": 63921, "x": 1.0975, "y": 0.5666666666666667}, {"type": "position", "time": 63974, "x": 1.13, "y": 0.56}, {"type": "position", "time": 64022, "x": 1.15, "y": 0.56}, {"type": "position", "time": 64070, "x": 1.15, "y": 0.56}, {"type": "position", "time": 64121, "x": 1.15, "y": 0.56}, {"type": "position", "time": 64170, "x": 1.15, "y": 0.56}, {"type": "position", "time": 64220, "x": 1.15, "y": 0.56}, {"type": "position", "time": 64270, "x": 1.14625, "y": 0.56}, {"type": "slider", "time": 64334, "value": 0.82}, {"type": "position", "time": 64342, "x": 1.14625, "y": 0.56}, {"type": "position", "time": 64371, "x": 1.14625, "y": 0.56}, {"type": "position", "time": 64467, "x": 1.14625, "y": 0.56}, {"type": "position", "time": 64470, "x": 1.14625, "y": 0.56}, {"type": "position", "time": 64520, "x": 1.14625, "y": 0.56}, {"type": "position", "time": 64570, "x": 1.14625, "y": 0.56}, {"type": "position", "time": 64620, "x": 1.14625, "y": 0.56}, {"type": "position", "time": 64670, "x": 1.14625, "y": 0.56}, {"type": "position", "time": 64720, "x": 1.14625, "y": 0.56}, {"type": "position", "time": 64770, "x": 1.14625, "y": 0.56}, {"type": "position", "time": 64830, "x": 1.1075, "y": 0.57}, {"type": "position", "time": 64870, "x": 1.1025, "y": 0.5733333333333334}, {"type": "position", "time": 64931, "x": 1.075, "y"