{"SubmitTime": "2016-03-10T20:52:30Z", "AssignmentId": "39ASUFLU6X7HFKKGU681BOVNBGZXEZ", "HITId": "38G0E1M85M53D7EEUOHN21OJ7HQVU5", "answers": {"data": {"trials": [{"story": "Japan", "time": 48231, "name": "Adam", "rt": 25267, "blocknum": 0, "qtype": "probability", "response": 0.98, "trialnum": 1, "gender": "male", "qnum": 0}, {"story": "Japan", "time": 48231, "name": "Adam", "rt": 25267, "blocknum": 0, "qtype": "ungrammatical", "trialnum": 1, "gender": "male", "qnum": 0}, {"story": "Japan", "time": 63113, "name": "Julia", "rt": 14872, "blocknum": 0, "qtype": "explanation", "response": "she slept on the plane", "trialnum": 2, "gender": "female", "qnum": 1}, {"story": "Japan", "time": 66468, "name": "Julia", "rt": 3291, "blocknum": 0, "qtype": "probability", "response": 0.97, "trialnum": 3, "gender": "female", "qnum": 2}, {"story": "Japan", "time": 66468, "name": "Julia", "rt": 3291, "blocknum": 0, "qtype": "ungrammatical", "trialnum": 3, "gender": "female", "qnum": 2}, {"story": "Japan", "time": 93932, "name": "Gabrielle", "rt": 27446, "blocknum": 0, "qtype": "probability", "response": 0.97, "trialnum": 4, "gender": "female", "qnum": 3}, {"story": "Japan", "time": 93932, "name": "Gabrielle", "rt": 27446, "blocknum": 0, "qtype": "ungrammatical", "response": false, "trialnum": 4, "gender": "female", "qnum": 3}, {"story": "Japan", "time": 106848, "name": "Joshua", "rt": 12897, "blocknum": 0, "qtype": "probability", "response": 0.93, "trialnum": 5, "gender": "male", "qnum": 4}, {"story": "Japan", "time": 106848, "name": "Joshua", "rt": 12897, "blocknum": 0, "qtype": "ungrammatical", "response": false, "trialnum": 5, "gender": "male", "qnum": 4}, {"story": "Japan", "time": 112334, "name": "Jared", "rt": 5469, "blocknum": 0, "qtype": "probability", "response": 0.94, "trialnum": 6, "gender": "male", "qnum": 5}, {"story": "Japan", "time": 112334, "name": "Jared", "rt": 5469, "blocknum": 0, "qtype": "ungrammatical", "response": false, "trialnum": 6, "gender": "male", "qnum": 5}, {"story": "coffee", "time": 124170, "name": "Morgan", "rt": 11823, "blocknum": 1, "qtype": "probability", "response": 0.72, "trialnum": 8, "gender": "female", "qnum": 0}, {"story": "coffee", "time": 124170, "name": "Morgan", "rt": 11823, "blocknum": 1, "qtype": "ungrammatical", "trialnum": 8, "gender": "female", "qnum": 0}, {"story": "coffee", "time": 138639, "name": "Vanessa", "rt": 14465, "blocknum": 1, "qtype": "explanation", "response": "she has add", "trialnum": 9, "gender": "female", "qnum": 1}, {"story": "coffee", "time": 141762, "name": "Vanessa", "rt": 3104, "blocknum": 1, "qtype": "probability", "response": 0.64, "trialnum": 10, "gender": "female", "qnum": 2}, {"story": "coffee", "time": 141762, "name": "Vanessa", "rt": 3104, "blocknum": 1, "qtype": "ungrammatical", "trialnum": 10, "gender": "female", "qnum": 2}, {"story": "coffee", "time": 154896, "name": "Kevin", "rt": 13122, "blocknum": 1, "qtype": "probability", "response": 0.65, "trialnum": 11, "gender": "male", "qnum": 3}, {"story": "coffee", "time": 154896, "name": "Kevin", "rt": 13122, "blocknum": 1, "qtype": "ungrammatical", "response": false, "trialnum": 11, "gender": "male", "qnum": 3}, {"story": "coffee", "time": 170098, "name": "Patrick", "rt": 15190, "blocknum": 1, "qtype": "probability", "response": 0.65, "trialnum": 12, "gender": "male", "qnum": 4}, {"story": "coffee", "time": 170098, "name": "Patrick", "rt": 15190, "blocknum": 1, "qtype": "ungrammatical", "response": false, "trialnum": 12, "gender": "male", "qnum": 4}, {"story": "coffee", "time": 178206, "name": "Mark", "rt": 8091, "blocknum": 1, "qtype": "probability", "response": 0.63, "trialnum": 13, "gender": "male", "qnum": 5}, {"story": "coffee", "time": 178206, "name": "Mark", "rt": 8091, "blocknum": 1, "qtype": "ungrammatical", "response": false, "trialnum": 13, "gender": "male", "qnum": 5}, {"story": "beach", "time": 188346, "name": "Kaitlyn", "rt": 10122, "blocknum": 2, "qtype": "probability", "response": 0.5, "trialnum": 15, "gender": "female", "qnum": 0}, {"story": "beach", "time": 188346, "name": "Kaitlyn", "rt": 10122, "blocknum": 2, "qtype": "ungrammatical", "trialnum": 15, "gender": "female", "qnum": 0}, {"story": "beach", "time": 209375, "name": "Derek", "rt": 21020, "blocknum": 2, "qtype": "explanation", "response": "there werent any waves", "trialnum": 16, "gender": "male", "qnum": 1}, {"story": "beach", "time": 212167, "name": "Derek", "rt": 2776, "blocknum": 2, "qtype": "probability", "response": 0.55, "trialnum": 17, "gender": "male", "qnum": 2}, {"story": "beach", "time": 212167, "name": "Derek", "rt": 2776, "blocknum": 2, "qtype": "ungrammatical", "trialnum": 17, "gender": "male", "qnum": 2}, {"story": "beach", "time": 223105, "name": "Lindsey", "rt": 10928, "blocknum": 2, "qtype": "probability", "response": 0.53, "trialnum": 18, "gender": "female", "qnum": 3}, {"story": "beach", "time": 223105, "name": "Lindsey", "rt": 10928, "blocknum": 2, "qtype": "ungrammatical", "response": false, "trialnum": 18, "gender": "female", "qnum": 3}, {"story": "beach", "time": 239714, "name": "Ian", "rt": 16592, "blocknum": 2, "qtype": "probability", "response": 0.55, "trialnum": 19, "gender": "male", "qnum": 4}, {"story": "beach", "time": 239714, "name": "Ian", "rt": 16592, "blocknum": 2, "qtype": "ungrammatical", "response": false, "trialnum": 19, "gender": "male", "qnum": 4}, {"story": "beach", "time": 249097, "name": "Robert", "rt": 9367, "blocknum": 2, "qtype": "probability", "response": 0.52, "trialnum": 20, "gender": "male", "qnum": 5}, {"story": "beach", "time": 249097, "name": "Robert", "rt": 9367, "blocknum": 2, "qtype": "ungrammatical", "response": false, "trialnum": 20, "gender": "male", "qnum": 5}, {"story": "guitar", "time": 258283, "name": "Amanda", "rt": 9172, "blocknum": 3, "qtype": "probability", "response": 0.99, "trialnum": 22, "gender": "female", "qnum": 0}, {"story": "guitar", "time": 258283, "name": "Amanda", "rt": 9172, "blocknum": 3, "qtype": "ungrammatical", "trialnum": 22, "gender": "female", "qnum": 0}, {"story": "guitar", "time": 274628, "name": "Andrew", "rt": 16338, "blocknum": 3, "qtype": "explanation", "response": "he doesnt like composing", "trialnum": 23, "gender": "male", "qnum": 1}, {"story": "guitar", "time": 277193, "name": "Andrew", "rt": 2545, "blocknum": 3, "qtype": "probability", "response": 1, "trialnum": 24, "gender": "male", "qnum": 2}, {"story": "guitar", "time": 277193, "name": "Andrew", "rt": 2545, "blocknum": 3, "qtype": "ungrammatical", "trialnum": 24, "gender": "male", "qnum": 2}, {"story": "guitar", "time": 283525, "name": "Nathan", "rt": 6319, "blocknum": 3, "qtype": "probability", "response": 0.98, "trialnum": 25, "gender": "male", "qnum": 3}, {"story": "guitar", "time": 283525, "name": "Nathan", "rt": 6319, "blocknum": 3, "qtype": "ungrammatical", "response": false, "trialnum": 25, "gender": "male", "qnum": 3}, {"story": "guitar", "time": 291442, "name": "Alexis", "rt": 7901, "blocknum": 3, "qtype": "probability", "response": 1, "trialnum": 26, "gender": "female", "qnum": 4}, {"story": "guitar", "time": 291442, "name": "Alexis", "rt": 7901, "blocknum": 3, "qtype": "ungrammatical", "response": false, "trialnum": 26, "gender": "female", "qnum": 4}, {"story": "guitar", "time": 301050, "name": "Charles", "rt": 9598, "blocknum": 3, "qtype": "probability", "response": 1, "trialnum": 27, "gender": "male", "qnum": 5}, {"story": "guitar", "time": 301050, "name": "Charles", "rt": 9598, "blocknum": 3, "qtype": "ungrammatical", "response": false, "trialnum": 27, "gender": "male", "qnum": 5}, {"story": "insomnia", "time": 311280, "name": "Trevor", "rt": 10217, "blocknum": 4, "qtype": "probability", "response": 0.69, "trialnum": 29, "gender": "male", "qnum": 0}, {"story": "insomnia", "time": 311280, "name": "Trevor", "rt": 10217, "blocknum": 4, "qtype": "ungrammatical", "trialnum": 29, "gender": "male", "qnum": 0}, {"story": "insomnia", "time": 319977, "name": "Devin", "rt": 8690, "blocknum": 4, "qtype": "explanation", "response": "he was focused", "trialnum": 30, "gender": "male", "qnum": 1}, {"story": "insomnia", "time": 331536, "name": "Devin", "rt": 11538, "blocknum": 4, "qtype": "probability", "response": 0.75, "trialnum": 31, "gender": "male", "qnum": 2}, {"story": "insomnia", "time": 331536, "name": "Devin", "rt": 11538, "blocknum": 4, "qtype": "ungrammatical", "trialnum": 31, "gender": "male", "qnum": 2}, {"story": "insomnia", "time": 338740, "name": "Chelsea", "rt": 7190, "blocknum": 4, "qtype": "probability", "response": 0.69, "trialnum": 32, "gender": "female", "qnum": 3}, {"story": "insomnia", "time": 338740, "name": "Chelsea", "rt": 7190, "blocknum": 4, "qtype": "ungrammatical", "response": false, "trialnum": 32, "gender": "female", "qnum": 3}, {"story": "insomnia", "time": 352799, "name": "Benjamin", "rt": 14049, "blocknum": 4, "qtype": "probability", "response": 0.64, "trialnum": 33, "gender": "male", "qnum": 4}, {"story": "insomnia", "time": 352799, "name": "Benjamin", "rt": 14049, "blocknum": 4, "qtype": "ungrammatical", "response": false, "trialnum": 33, "gender": "male", "qnum": 4}, {"story": "insomnia", "time": 358356, "name": "Victoria", "rt": 5541, "blocknum": 4, "qtype": "probability", "response": 0.69, "trialnum": 34, "gender": "female", "qnum": 5}, {"story": "insomnia", "time": 358356, "name": "Victoria", "rt": 5541, "blocknum": 4, "qtype": "ungrammatical", "response": false, "trialnum": 34, "gender": "female", "qnum": 5}, {"story": "painting", "time": 371728, "name": "Alexander", "rt": 13357, "blocknum": 5, "qtype": "probability", "response": 0.51, "trialnum": 36, "gender": "male", "qnum": 0}, {"story": "painting", "time": 371728, "name": "Alexander", "rt": 13357, "blocknum": 5, "qtype": "ungrammatical", "trialnum": 36, "gender": "male", "qnum": 0}, {"story": "painting", "time": 382950, "name": "Brooke", "rt": 11218, "blocknum": 5, "qtype": "explanation", "response": "he didnt take it seriously", "trialnum": 37, "gender": "female", "qnum": 1}, {"story": "painting", "time": 387908, "name": "Brooke", "rt": 4936, "blocknum": 5, "qtype": "probability", "response": 0.67, "trialnum": 38, "gender": "female", "qnum": 2}, {"story": "painting", "time": 387908, "name": "Brooke", "rt": 4936, "blocknum": 5, "qtype": "ungrammatical", "trialnum": 38, "gender": "female", "qnum": 2}, {"story": "painting", "time": 395396, "name": "Jeremy", "rt": 7470, "blocknum": 5, "qtype": "probability", "response": 0.66, "trialnum": 39, "gender": "male", "qnum": 3}, {"story": "painting", "time": 395396, "name": "Jeremy", "rt": 7470, "blocknum": 5, "qtype": "ungrammatical", "response": false, "trialnum": 39, "gender": "male", "qnum": 3}, {"story": "painting", "time": 400959, "name": "Nicholas", "rt": 5542, "blocknum": 5, "qtype": "probability", "response": 0.66, "trialnum": 40, "gender": "male", "qnum": 4}, {"story": "painting", "time": 400959, "name": "Nicholas", "rt": 5542, "blocknum": 5, "qtype": "ungrammatical", "response": false, "trialnum": 40, "gender": "male", "qnum": 4}, {"story": "painting", "time": 416131, "name": "Timothy", "rt": 15154, "blocknum": 5, "qtype": "probability", "response": 0.67, "trialnum": 41, "gender": "male", "qnum": 5}, {"story": "painting", "time": 416131, "name": "Timothy", "rt": 15154, "blocknum": 5, "qtype": "ungrammatical", "response": false, "trialnum": 41, "gender": "male", "qnum": 5}, {"story": "reading", "time": 426833, "name": "Savannah", "rt": 10687, "blocknum": 6, "qtype": "probability", "response": 0.81, "trialnum": 43, "gender": "female", "qnum": 0}, {"story": "reading", "time": 426833, "name": "Savannah", "rt": 10687, "blocknum": 6, "qtype": "ungrammatical", "trialnum": 43, "gender": "female", "qnum": 0}, {"story": "reading", "time": 434018, "name": "Juan", "rt": 7177, "blocknum": 6, "qtype": "explanation", "response": "he wore glasses", "trialnum": 44, "gender": "male", "qnum": 1}, {"story": "reading", "time": 443592, "name": "Juan", "rt": 9553, "blocknum": 6, "qtype": "probability", "response": 0.82, "trialnum": 45, "gender": "male", "qnum": 2}, {"story": "reading", "time": 443592, "name": "Juan", "rt": 9553, "blocknum": 6, "qtype": "ungrammatical", "trialnum": 45, "gender": "male", "qnum": 2}, {"story": "reading", "time": 447577, "name": "Emily", "rt": 3962, "blocknum": 6, "qtype": "probability", "response": 0.91, "trialnum": 46, "gender": "female", "qnum": 3}, {"story": "reading", "time": 447577, "name": "Emily", "rt": 3962, "blocknum": 6, "qtype": "ungrammatical", "response": false, "trialnum": 46, "gender": "female", "qnum": 3}, {"story": "reading", "time": 450629, "name": "Paige", "rt": 3041, "blocknum": 6, "qtype": "probability", "response": 0.84, "trialnum": 47, "gender": "female", "qnum": 4}, {"story": "reading", "time": 450629, "name": "Paige", "rt": 3041, "blocknum": 6, "qtype": "ungrammatical", "response": false, "trialnum": 47, "gender": "female", "qnum": 4}, {"story": "reading", "time": 456042, "name": "Erin", "rt": 5404, "blocknum": 6, "qtype": "probability", "response": 0.84, "trialnum": 48, "gender": "female", "qnum": 5}, {"story": "reading", "time": 456042, "name": "Erin", "rt": 5404, "blocknum": 6, "qtype": "ungrammatical", "response": false, "trialnum": 48, "gender": "female", "qnum": 5}, {"story": "fitness", "time": 472303, "name": "Luis", "rt": 16250, "blocknum": 7, "qtype": "probability", "response": 0.93, "trialnum": 50, "gender": "male", "qnum": 0}, {"story": "fitness", "time": 472303, "name": "Luis", "rt": 16250, "blocknum": 7, "qtype": "ungrammatical", "trialnum": 50, "gender": "male", "qnum": 0}, {"story": "fitness", "time": 490309, "name": "Danielle", "rt": 17998, "blocknum": 7, "qtype": "explanation", "response": "she ate lots of twinkies", "trialnum": 51, "gender": "female", "qnum": 1}, {"story": "fitness", "time": 492851, "name": "Danielle", "rt": 2524, "blocknum": 7, "qtype": "probability", "response": 0.91, "trialnum": 52, "gender": "female", "qnum": 2}, {"story": "fitness", "time": 492851, "name": "Danielle", "rt": 2524, "blocknum": 7, "qtype": "ungrammatical", "trialnum": 52, "gender": "female", "qnum": 2}, {"story": "fitness", "time": 496255, "name": "Miranda", "rt": 3394, "blocknum": 7, "qtype": "probability", "response": 0.87, "trialnum": 53, "gender": "female", "qnum": 3}, {"story": "fitness", "time": 496255, "name": "Miranda", "rt": 3394, "blocknum": 7, "qtype": "ungrammatical", "response": false, "trialnum": 53, "gender": "female", "qnum": 3}, {"story": "fitness", "time": 498775, "name": "Ryan", "rt": 2499, "blocknum": 7, "qtype": "probability", "response": 0.88, "trialnum": 54, "gender": "male", "qnum": 4}, {"story": "fitness", "time": 498775, "name": "Ryan", "rt": 2499, "blocknum": 7, "qtype": "ungrammatical", "response": false, "trialnum": 54, "gender": "male", "qnum": 4}, {"story": "fitness", "time": 501371, "name": "Courtney", "rt": 2586, "blocknum": 7, "qtype": "probability", "response": 0.9, "trialnum": 55, "gender": "female", "qnum": 5}, {"story": "fitness", "time": 501371, "name": "Courtney", "rt": 2586, "blocknum": 7, "qtype": "ungrammatical", "response": false, "trialnum": 55, "gender": "female", "qnum": 5}, {"story": "cooking", "time": 512091, "name": "Emma", "rt": 10708, "blocknum": 8, "qtype": "probability", "response": 0.81, "trialnum": 57, "gender": "female", "qnum": 0}, {"story": "cooking", "time": 512091, "name": "Emma", "rt": 10708, "blocknum": 8, "qtype": "ungrammatical", "trialnum": 57, "gender": "female", "qnum": 0}, {"story": "cooking", "time": 524564, "name": "Will", "rt": 12466, "blocknum": 8, "qtype": "explanation", "response": "he didnt like anyhitng they made", "trialnum": 58, "gender": "male", "qnum": 1}, {"story": "cooking", "time": 527168, "name": "Will", "rt": 2587, "blocknum": 8, "qtype": "probability", "response": 0.87, "trialnum": 59, "gender": "male", "qnum": 2}, {"story": "cooking", "time": 527168, "name": "Will", "rt": 2587, "blocknum": 8, "qtype": "ungrammatical", "trialnum": 59, "gender": "male", "qnum": 2}, {"story": "cooking", "time": 531485, "name": "Travis", "rt": 4306, "blocknum": 8, "qtype": "probability", "response": 0.9, "trialnum": 60, "gender": "male", "qnum": 3}, {"story": "cooking", "time": 531485, "name": "Travis", "rt": 4306, "blocknum": 8, "qtype": "ungrammatical", "response": false, "trialnum": 60, "gender": "male", "qnum": 3}, {"story": "cooking", "time": 534571, "name": "Dylan", "rt": 3077, "blocknum": 8, "qtype": "probability", "response": 0.9, "trialnum": 61, "gender": "male", "qnum": 4}, {"story": "cooking", "time": 534571, "name": "Dylan", "rt": 3077, "blocknum": 8, "qtype": "ungrammatical", "response": false, "trialnum": 61, "gender": "male", "qnum": 4}, {"story": "cooking", "time": 536800, "name": "Andrea", "rt": 2222, "blocknum": 8, "qtype": "probability", "response": 0.88, "trialnum": 62, "gender": "female", "qnum": 5}, {"story": "cooking", "time": 536800, "name": "Andrea", "rt": 2222, "blocknum": 8, "qtype": "ungrammatical", "response": false, "trialnum": 62, "gender": "female", "qnum": 5}], "events": [{"type": "position", "time": 1086, "x": 0, "y": 0}, {"type": "position", "time": 2090, "x": 0, "y": 0}, {"type": "position", "time": 4122, "x": 0, "y": 0}, {"type": "position", "time": 4150, "x": 0, "y": 0}, {"type": "position", "time": 4176, "x": 0, "y": 0}, {"type": "position", "time": 4234, "x": 0, "y": 0}, {"type": "position", "time": 4376, "x": 0, "y": 0}, {"type": "position", "time": 4381, "x": 0, "y": 0}, {"type": "position", "time": 4467, "x": 0, "y": 0}, {"type": "position", "time": 4489, "x": 0, "y": 0}, {"type": "position", "time": 4538, "x": 1.17125, "y": 0.5166666666666667}, {"type": "position", "time": 4594, "x": 1.1825, "y": 0.6533333333333333}, {"type": "position", "time": 4628, "x": 1.1825, "y": 0.6533333333333333}, {"type": "position", "time": 4676, "x": 1.18, "y": 0.6516666666666666}, {"type": "position", "time": 4771, "x": 1.15125, "y": 0.4666666666666667}, {"type": "position", "time": 4777, "x": 1.15125, "y": 0.4666666666666667}, {"type": "position", "time": 4844, "x": 1.15125, "y": 0.4666666666666667}, {"type": "position", "time": 4876, "x": 1.15125, "y": 0.465}, {"type": "position", "time": 4941, "x": 0.98125, "y": 0.4}, {"type": "position", "time": 4995, "x": 0.925, "y": 0.38666666666666666}, {"type": "position", "time": 5026, "x": 0.92375, "y": 0.4033333333333333}, {"type": "position", "time": 5527, "x": 1.0475, "y": 0.49333333333333335}, {"type": "position", "time": 5553, "x": 1.05, "y": 0.49666666666666665}, {"type": "position", "time": 5577, "x": 1.0525, "y": 0.49666666666666665}, {"type": "position", "time": 5627, "x": 1.05625, "y": 0.49666666666666665}, {"type": "position", "time": 5689, "x": 1.05625, "y": 0.49666666666666665}, {"type": "position", "time": 5727, "x": 1.05625, "y": 0.49666666666666665}, {"type": "position", "time": 5776, "x": 1.0575, "y": 0.49666666666666665}, {"type": "position", "time": 5827, "x": 1.05875, "y": 0.49666666666666665}, {"type": "position", "time": 5877, "x": 1.05875, "y": 0.49666666666666665}, {"type": "position", "time": 5927, "x": 1.0625, "y": 0.49666666666666665}, {"type": "position", "time": 5979, "x": 1.36375, "y": 0.5633333333333334}, {"type": "position", "time": 6027, "x": 1.72375, "y": 0.6033333333333334}, {"type": "position", "time": 6085, "x": 1.8425, "y": 0.5966666666666667}, {"type": "position", "time": 6127, "x": 1.8425, "y": 0.5966666666666667}, {"type": "position", "time": 6177, "x": 1.8425, "y": 0.5966666666666667}, {"type": "position", "time": 6227, "x": 1.8425, "y": 0.5966666666666667}, {"type": "position", "time": 6277, "x": 1.8425, "y": 0.5966666666666667}, {"type": "position", "time": 6330, "x": 1.8425, "y": 0.5966666666666667}, {"type": "position", "time": 6378, "x": 1.8425, "y": 0.5966666666666667}, {"type": "position", "time": 6427, "x": 1.8425, "y": 0.5966666666666667}, {"type": "position", "time": 6477, "x": 1.8425, "y": 0.5966666666666667}, {"type": "position", "time": 6527, "x": 1.8425, "y": 0.5966666666666667}, {"type": "position", "time": 6577, "x": 1.8425, "y": 0.5966666666666667}, {"type": "position", "time": 6628, "x": 1.8425, "y": 0.5966666666666667}, {"type": "position", "time": 6678, "x": 1.8425, "y": 0.5966666666666667}, {"type": "position", "time": 6727, "x": 1.8425, "y": 0.5966666666666667}, {"type": "position", "time": 6777, "x": 1.8425, "y": 0.5966666666666667}, {"type": "position", "time": 6827, "x": 1.8425, "y": 0.5966666666666667}, {"type": "position", "time": 7357, "x": 1.8425, "y": 0.5966666666666667}, {"type": "position", "time": 7389, "x": 1.8425, "y": 0.5966666666666667}, {"type": "position", "time": 7407, "x": 1.8425, "y": 0.5966666666666667}, {"type": "position", "time": 7457, "x": 1.8425, "y": 0.5966666666666667}, {"type": "position", "time": 7506, "x": 1.8425, "y": 0.5966666666666667}, {"type": "position", "time": 7557, "x": 1.8425, "y": 0.5966666666666667}, {"type": "position", "time": 7606, "x": 1.8425, "y": 0.5966666666666667}, {"type": "position", "time": 7657, "x": 1.8425, "y": 0.5966666666666667}, {"type": "position", "time": 7707, "x": 1.8425, "y": 0.5966666666666667}, {"type": "position", "time": 7756, "x": 1.8425, "y": 0.5966666666666667}, {"type": "position", "time": 7806, "x": 1.8425, "y": 0.5966666666666667}, {"type": "position", "time": 7866, "x": 1.8425, "y": 0.5966666666666667}, {"type": "position", "time": 7906, "x": 1.8425, "y": 0.5966666666666667}, {"type": "position", "time": 7957, "x": 1.8425, "y": 0.5966666666666667}, {"type": "position", "time": 8006, "x": 1.8425, "y": 0.5966666666666667}, {"type": "position", "time": 8056, "x": 1.8425, "y": 0.5966666666666667}, {"type": "position", "time": 8107, "x": 1.8425, "y": 0.5966666666666667}, {"type": "position", "time": 8156, "x": 1.8425, "y": 0.5966666666666667}, {"type": "position", "time": 8207, "x": 1.8425, "y": 0.5966666666666667}, {"type": "position", "time": 8257, "x": 1.8425, "y": 0.5966666666666667}, {"type": "position", "time": 8306, "x": 1.8425, "y": 0.5966666666666667}, {"type": "position", "time": 8357, "x": 1.8425, "y": 0.5966666666666667}, {"type": "position", "time": 8406, "x": 1.8425, "y": 0.5966666666666667}, {"type": "position", "time": 8458, "x": 1.8425, "y": 0.5966666666666667}, {"type": "position", "time": 8928, "x": 1.1825, "y": 0.5666666666666667}, {"type": "position", "time": 9135, "x": 0.595, "y": 0.12666666666666668}, {"type": "position", "time": 9148, "x": 0.5825, "y": 0.09166666666666666}, {"type": "position", "time": 9185, "x": 0.54125, "y": 0.011666666666666667}, {"type": "position", "time": 9235, "x": 0.54125, "y": 0.011666666666666667}, {"type": "position", "time": 9287, "x": 0.54125, "y": 0.011666666666666667}, {"type": "position", "time": 9334, "x": 0.54125, "y": 0.011666666666666667}, {"type": "position", "time": 9385, "x": 0.54125, "y": 0.011666666666666667}, {"type": "position", "time": 9437, "x": 0.54125, "y": 0.011666666666666667}, {"type": "position", "time": 9486, "x": 0.54125, "y": 0.011666666666666667}, {"type": "position", "time": 9535, "x": 0.54125, "y": 0.011666666666666667}, {"type": "position", "time": 9585, "x": 0.54125, "y": 0.011666666666666667}, {"type": "position", "time": 9663, "x": 0.54125, "y": 0.011666666666666667}, {"type": "position", "time": 11770, "x": 0.54125, "y": 0.011666666666666667}, {"type": "position", "time": 11830, "x": 0.54125, "y": 0.011666666666666667}, {"type": "position", "time": 12945, "x": 0.54125, "y": 0.011666666666666667}, {"type": "position", "time": 13787, "x": 0.54125, "y": 0.011666666666666667}, {"type": "position", "time": 14770, "x": 0.54125, "y": 0.011666666666666667}, {"type": "position", "time": 15781, "x": 0.54125, "y": 0.011666666666666667}, {"type": "position", "time": 16770, "x": 0.54125, "y": 0.011666666666666667}, {"type": "position", "time": 17770, "x": 0.54125, "y": 0.011666666666666667}, {"type": "position", "time": 18771, "x": 0.54125, "y": 0.011666666666666667}, {"type": "position", "time": 19802, "x": 0.54125, "y": 0.011666666666666667}, {"type": "position", "time": 20784, "x": 0.54125, "y": 0.011666666666666667}, {"type": "position", "time": 21059, "x": 0.54125, "y": 0.011666666666666667}, {"type": "position", "time": 21089, "x": 0.54125, "y": 0.011666666666666667}, {"type": "position", "time": 21128, "x": 0.54125, "y": 0.011666666666666667}, {"type": "position", "time": 21178, "x": 0.54125, "y": 0.011666666666666667}, {"type": "position", "time": 21228, "x": 0.54125, "y": 0.011666666666666667}, {"type": "position", "time": 21277, "x": 0.54125, "y": 0.011666666666666667}, {"type": "position", "time": 21329, "x": 1.30625, "y": 0.25666666666666665}, {"type": "position", "time": 21378, "x": 1.39125, "y": 0.6883333333333334}, {"type": "position", "time": 21561, "x": 1.24875, "y": 0.845}, {"type": "position", "time": 21564, "x": 1.24125, "y": 0.83}, {"type": "position", "time": 21619, "x": 1.13375, "y": 0.6266666666666667}, {"type": "position", "time": 21667, "x": 1.0925, "y": 0.5683333333333334}, {"type": "position", "time": 21711, "x": 1.05875, "y": 0.5266666666666666}, {"type": "position", "time": 21761, "x": 1.04375, "y": 0.515}, {"type": "position", "time": 21810, "x": 1.03, "y": 0.5016666666666667}, {"type": "position", "time": 21860, "x": 1.005, "y": 0.4866666666666667}, {"type": "position", "time": 21911, "x": 0.99625, "y": 0.485}, {"type": "position", "time": 21960, "x": 0.99625, "y": 0.485}, {"type": "position", "time": 22013, "x": 0.98875, "y": 0.48833333333333334}, {"type": "position", "time": 22061, "x": 0.97625, "y": 0.4866666666666667}, {"type": "position", "time": 22111, "x": 0.94, "y": 0.4633333333333333}, {"type": "position", "time": 22164, "x": 0.93, "y": 0.45666666666666667}, {"type": "position", "time": 22210, "x": 0.93, "y": 0.45666666666666667}, {"type": "position", "time": 22261, "x": 0.93, "y": 0.45666666666666667}, {"type": "position", "time": 22316, "x": 0.93, "y": 0.45666666666666667}, {"type": "click", "time": 22348, "x": 0.93, "y": 0.45666666666666667}, {"type": "position", "time": 22360, "x": 0.93, "y": 0.45666666666666667}, {"type": "position", "time": 22410, "x": 0.93, "y": 0.45666666666666667}, {"type": "position", "time": 22461, "x": 0.93, "y": 0.45666666666666667}, {"type": "position", "time": 22510, "x": 0.93, "y": 0.45666666666666667}, {"type": "position", "time": 22561, "x": 0.93, "y": 0.46166666666666667}, {"type": "position", "time": 22729, "x": 0.94375, "y": 0.48333333333333334}, {"type": "position", "time": 22734, "x": 0.94375, "y": 0.48333333333333334}, {"type": "position", "time": 22802, "x": 0.94375, "y": 0.485}, {"type": "position", "time": 22871, "x": 0.94375, "y": 0.485}, {"type": "position", "time": 22879, "x": 0.94375, "y": 0.485}, {"type": "position", "time": 22929, "x": 0.94375, "y": 0.485}, {"type": "click", "time": 22966, "x": 0.94375, "y": 0.485}, {"type": "position", "time": 22980, "x": 0.94375, "y": 0.485}, {"type": "position", "time": 23036, "x": 0.94375, "y": 0.4866666666666667}, {"type": "position", "time": 23079, "x": 0.975, "y": 0.49333333333333335}, {"type": "position", "time": 23132, "x": 1.085, "y": 0.53}, {"type": "position", "time": 23195, "x": 1.3275, "y": 0.56}, {"type": "position", "time": 23233, "x": 1.4075, "y": 0.5516666666666666}, {"type": "position", "time": 23279, "x": 1.41375, "y": 0.5516666666666666}, {"type": "position", "time": 23328, "x": 1.41375, "y": 0.5516666666666666}, {"type": "position", "time": 23382, "x": 1.41375, "y": 0.5516666666666666}, {"type": "position", "time": 23429, "x": 1.41375, "y": 0.5516666666666666}, {"type": "position", "time": 23478, "x": 1.41375, "y": 0.5516666666666666}, {"type": "position", "time": 23528, "x": 1.41375, "y": 0.5516666666666666}, {"type": "position", "time": 23578, "x": 1.41375, "y": 0.5516666666666666}, {"type": "position", "time": 23628, "x": 1.41375, "y": 0.5516666666666666}, {"type": "position", "time": 23679, "x": 1.41375, "y": 0.5516666666666666}, {"type": "position", "time": 23728, "x": 1.41375, "y": 0.5516666666666666}, {"type": "position", "time": 23790, "x": 1.4575, "y": 0.57}, {"type": "position", "time": 23828, "x": 1.4875, "y": 0.5866666666666667}, {"type": "position", "time": 23884, "x": 1.49875, "y": 0.5866666666666667}, {"type": "position", "time": 23929, "x": 1.515, "y": 0.5916666666666667}, {"type": "position", "time": 23979, "x": 1.55625, "y": 0.5966666666666667}, {"type": "position", "time": 24031, "x": 1.57, "y": 0.6}, {"type": "position", "time": 24079, "x": 1.57, "y": 0.6}, {"type": "position", "time": 24128, "x": 1.57, "y": 0.6}, {"type": "position", "time": 24179, "x": 1.57, "y": 0.6}, {"type": "position", "time": 24354, "x": 1.5675, "y": 0.6}, {"type": "position", "time": 24381, "x": 1.5675, "y": 0.6}, {"type": "position", "time": 24406, "x": 1.5675, "y": 0.6}, {"type": "position", "time": 24455, "x": 1.5675, "y": 0.6}, {"type": "position", "time": 24510, "x": 1.5925, "y": 0.6033333333333334}, {"type": "position", "time": 24556, "x": 1.6075, "y": 0.6033333333333334}, {"type": "position", "time": 24604, "x": 1.6175, "y": 0.6016666666666667}, {"type": "position", "time": 24655, "x": 1.62375, "y": 0.6016666666666667}, {"type": "position", "time": 24704, "x": 1.62375, "y": 0.6016666666666667}, {"type": "position", "time": 24761, "x": 1.54, "y": 0.585}, {"type": "position", "time": 24806, "x": 1.41, "y": 0.5566666666666666}, {"type": "position", "time": 24854, "x": 1.37125, "y": 0.5516666666666666}, {"type": "position", "time": 24906, "x": 1.37125, "y": 0.5516666666666666}, {"type": "position", "time": 24956, "x": 1.37125, "y": 0.5516666666666666}, {"type": "position", "time": 25004, "x": 1.37125, "y": 0.5516666666666666}, {"type": "position", "time": 25054, "x": 1.37125, "y": 0.5516666666666666}, {"type": "position", "time": 25104, "x": 1.37125, "y": 0.5516666666666666}, {"type": "position", "time": 25154, "x": 1.37125, "y": 0.5516666666666666}, {"type": "position", "time": 25204, "x": 1.37125, "y": 0.5516666666666666}, {"type": "position", "time": 25254, "x": 1.37125, "y": 0.5516666666666666}, {"type": "position", "time": 25304, "x": 1.37125, "y": 0.5516666666666666}, {"type": "position", "time": 25355, "x": 1.37125, "y": 0.5516666666666666}, {"type": "position", "time": 25404, "x": 1.37125, "y": 0.5516666666666666}, {"type": "position", "time": 25454, "x": 1.37125, "y": 0.5516666666666666}, {"type": "position", "time": 25503, "x": 1.37125, "y": 0.5516666666666666}, {"type": "position", "time": 25553, "x": 1.37125, "y": 0.5516666666666666}, {"type": "position", "time": 25604, "x": 1.37125, "y": 0.5516666666666666}, {"type": "position", "time": 25654, "x": 1.37125, "y": 0.5516666666666666}, {"type": "position", "time": 25704, "x": 1.37125, "y": 0.5516666666666666}, {"type": "position", "time": 25754, "x": 1.37125, "y": 0.5516666666666666}, {"type": "position", "time": 25804, "x": 1.37125, "y": 0.5516666666666666}, {"type": "position", "time": 25854, "x": 1.37125, "y": 0.5516666666666666}, {"type": "position", "time": 25904, "x": 1.37125, "y": 0.5516666666666666}, {"type": "position", "time": 25953, "x": 1.37125, "y": 0.5516666666666666}, {"type": "position", "time": 26003, "x": 1.37125, "y": 0.5516666666666666}, {"type": "position", "time": 26054, "x": 1.37125, "y": 0.5516666666666666}, {"type": "position", "time": 26104, "x": 1.37125, "y": 0.5516666666666666}, {"type": "position", "time": 26154, "x": 1.37125, "y": 0.5516666666666666}, {"type": "position", "time": 26204, "x": 1.37125, "y": 0.5516666666666666}, {"type": "position", "time": 26254, "x": 1.37125, "y": 0.5516666666666666}, {"type": "position", "time": 26304, "x": 1.37125, "y": 0.5516666666666666}, {"type": "position", "time": 26354, "x": 1.37125, "y": 0.5516666666666666}, {"type": "position", "time": 26404, "x": 1.37125, "y": 0.5516666666666666}, {"type": "position", "time": 26454, "x": 1.37125, "y": 0.5516666666666666}, {"type": "position", "time": 26504, "x": 1.37125, "y": 0.5516666666666666}, {"type": "position", "time": 26554, "x": 1.37125, "y": 0.5516666666666666}, {"type": "position", "time": 26604, "x": 1.37125, "y": 0.5516666666666666}, {"type": "position", "time": 26653, "x": 1.37125, "y": 0.5516666666666666}, {"type": "position", "time": 26703, "x": 1.37125, "y": 0.5516666666666666}, {"type": "position", "time": 26753, "x": 1.37125, "y": 0.5516666666666666}, {"type": "position", "time": 26804, "x": 1.37125, "y": 0.5516666666666666}, {"type": "position", "time": 26854, "x": 1.37125, "y": 0.5516666666666666}, {"type": "position", "time": 26904, "x": 1.37125, "y": 0.5516666666666666}, {"type": "position", "time": 26954, "x": 1.37125, "y": 0.5516666666666666}, {"type": "position", "time": 27003, "x": 1.37125, "y": 0.5516666666666666}, {"type": "position", "time": 27054, "x": 1.37125, "y": 0.5516666666666666}, {"type": "position", "time": 27104, "x": 1.37125, "y": 0.5516666666666666}, {"type": "position", "time": 27155, "x": 1.37125, "y": 0.5516666666666666}, {"type": "position", "time": 27204, "x": 1.37125, "y": 0.5516666666666666}, {"type": "position", "time": 27254, "x": 1.37125, "y": 0.5516666666666666}, {"type": "position", "time": 27304, "x": 1.37125, "y": 0.5516666666666666}, {"type": "position", "time": 27354, "x": 1.37125, "y": 0.5516666666666666}, {"type": "position", "time": 27404, "x": 1.37125, "y": 0.5516666666666666}, {"type": "position", "time": 27456, "x": 1.37125, "y": 0.5516666666666666}, {"type": "position", "time": 27504, "x": 1.37125, "y": 0.5516666666666666}, {"type": "position", "time": 27555, "x": 1.37125, "y": 0.5516666666666666}, {"type": "position", "time": 27604, "x": 1.37125, "y": 0.5516666666666666}, {"type": "position", "time": 27655, "x": 1.37125, "y": 0.5516666666666666}, {"type": "position", "time": 27704, "x": 1.37125, "y": 0.5516666666666666}, {"type": "position", "time": 27755, "x": 1.37125, "y": 0.5516666666666666}, {"type": "position", "time": 27804, "x": 1.37125, "y": 0.5516666666666666}, {"type": "position", "time": 27853, "x": 1.37125, "y": 0.5516666666666666}, {"type": "position", "time": 27903, "x": 1.37125, "y": 0.5516666666666666}, {"type": "position", "time": 27953, "x": 1.37125, "y": 0.5516666666666666}, {"type": "position", "time": 28004, "x": 1.37125, "y": 0.5516666666666666}, {"type": "position", "time": 28053, "x": 1.37125, "y": 0.5516666666666666}, {"type": "position", "time": 28104, "x": 1.37125, "y": 0.5516666666666666}, {"type": "position", "time": 28154, "x": 1.37125, "y": 0.5516666666666666}, {"type": "position", "time": 28204, "x": 1.37125, "y": 0.5516666666666666}, {"type": "position", "time": 28255, "x": 1.37125, "y": 0.5516666666666666}, {"type": "position", "time": 28761, "x": 1.37125, "y": 0.5516666666666666}, {"type": "position", "time": 28767, "x": 1.37125, "y": 0.5516666666666666}, {"type": "position", "time": 28811, "x": 1.37125, "y": 0.5516666666666666}, {"type": "position", "time": 28861, "x": 1.37125, "y": 0.5516666666666666}, {"type": "position", "time": 28911, "x": 1.37125, "y": 0.5516666666666666}, {"type": "position", "time": 28960, "x": 1.37125, "y": 0.5516666666666666}, {"type": "position", "time": 29015, "x": 1.37125, "y": 0.5516666666666666}, {"type": "position", "time": 29061, "x": 1.37125, "y": 0.5516666666666666}, {"type": "position", "time": 29110, "x": 1.37125, "y": 0.5516666666666666}, {"type": "position", "time": 29161, "x": 1.37125, "y": 0.5516666666666666}, {"type": "position", "time": 29211, "x": 1.37125, "y": 0.5516666666666666}, {"type": "position", "time": 29261, "x": 1.37125, "y": 0.5516666666666666}, {"type": "position", "time": 29311, "x": 1.37125, "y": 0.5516666666666666}, {"type": "position", "time": 29361, "x": 1.37125, "y": 0.5516666666666666}, {"type": "position", "time": 29411, "x": 1.37125, "y": 0.5516666666666666}, {"type": "position", "time": 29461, "x": 1.37125, "y": 0.5516666666666666}, {"type": "position", "time": 29511, "x": 1.37125, "y": 0.5516666666666666}, {"type": "position", "time": 29560, "x": 1.37125, "y": 0.5516666666666666}, {"type": "position", "time": 29610, "x": 1.37125, "y": 0.5516666666666666}, {"type": "position", "time": 29660, "x": 1.37125, "y": 0.5516666666666666}, {"type": "position", "time": 29710, "x": 1.37125, "y": 0.5516666666666666}, {"type": "position", "time": 29760, "x": 1.37125, "y": 0.5516666666666666}, {"type": "position", "time": 29811, "x": 1.37125, "y": 0.5516666666666666}, {"type": "position", "time": 29861, "x": 1.37125, "y": 0.5516666666666666}, {"type": "position", "time": 29912, "x": 1.37125, "y": 0.5516666666666666}, {"type": "position", "time": 29962, "x": 1.37125, "y": 0.5516666666666666}, {"type": "position", "time": 30011, "x": 1.37125, "y": 0.5516666666666666}, {"type": "position", "time": 30725, "x": 1.37125, "y": 0.55}, {"type": "position", "time": 30742, "x": 1.37125, "y": 0.55}, {"type": "position", "time": 30775, "x": 1.37125, "y": 0.55}, {"type": "position", "time": 30825, "x": 1.37125, "y": 0.55}, {"type": "position", "time": 30875, "x": 1.37125, "y": 0.55}, {"type": "position", "time": 30924, "x": 1.37125, "y": 0.55}, {"type": "position", "time": 30974, "x": 1.37125, "y": 0.55}, {"type": "position", "time": 31025, "x": 1.37125, "y": 0.55}, {"type": "position", "time": 31076, "x": 1.37125, "y": 0.55}, {"type": "position", "time": 31125, "x": 1.37125, "y": 0.55}, {"type": "position", "time": 31175, "x": 1.37125, "y": 0.55}, {"type": "position", "time": 31225, "x": 1.37125, "y": 0.55}, {"type": "position", "time": 31275, "x": 1.37125, "y": 0.55}, {"type": "position", "time": 31325, "x": 1.37125, "y": 0.55}, {"type": "position", "time": 31375, "x": 1.37125, "y": 0.55}, {"type": "position", "time": 31425, "x": 1.37125, "y": 0.55}, {"type": "position", "time": 31475, "x": 1.37125, "y": 0.55}, {"type": "position", "time": 31526, "x": 1.37125, "y": 0.55}, {"type": "position", "time": 31576, "x": 1.37125, "y": 0.55}, {"type": "position", "time": 31626, "x": 1.37125, "y": 0.55}, {"type": "position", "time": 31678, "x": 1.37125, "y": 0.55}, {"type": "position", "time": 31725, "x": 1.37125, "y": 0.55}, {"type": "position", "time": 32328, "x": 1.37125, "y": 0.55}, {"type": "position", "time": 32350, "x": 1.37125, "y": 0.55}, {"type": "position", "time": 32378, "x": 1.37125, "y": 0.55}, {"type": "position", "time": 32428, "x": 1.37125, "y": 0.55}, {"type": "position", "time": 32478, "x": 1.37125, "y": 0.55}, {"type": "position", "time": 32528, "x": 1.37125, "y": 0.55}, {"type": "position", "time": 32579, "x": 1.37125, "y": 0.55}, {"type": "position", "time": 32629, "x": 1.37125, "y": 0.55}, {"type": "position", "time": 32678, "x": 1.37125, "y": 0.55}, {"type": "position", "time": 32728, "x": 1.37125, "y": 0.55}, {"type": "position", "time": 32779, "x": 1.37125, "y": 0.55}, {"type": "position", "time": 32828, "x": 1.37125, "y": 0.55}, {"type": "position", "time": 32878, "x": 1.37125, "y": 0.55}, {"type": "position", "time": 32928, "x": 1.37125, "y": 0.55}, {"type": "position", "time": 32979, "x": 1.37125, "y": 0.55}, {"type": "position", "time": 33028, "x": 1.37125, "y": 0.55}, {"type": "position", "time": 33080, "x": 1.37125, "y": 0.55}, {"type": "position", "time": 33128, "x": 1.37125, "y": 0.55}, {"type": "position", "time": 33178, "x": 1.37125, "y": 0.55}, {"type": "position", "time": 33623, "x": 1.37125, "y": 0.55}, {"type": "position", "time": 33633, "x": 1.37125, "y": 0.55}, {"type": "position", "time": 33672, "x": 1.37125, "y": 0.55}, {"type": "position", "time": 33722, "x": 1.37125, "y": 0.55}, {"type": "position", "time": 34514, "x": 1.37125, "y": 0.55}, {"type": "position", "time": 34526, "x": 1.37125, "y": 0.55}, {"type": "position", "time": 34564, "x": 1.37125, "y": 0.55}, {"type": "position", "time": 34615, "x": 1.37125, "y": 0.55}, {"type": "position", "time": 34665, "x": 1.37125, "y": 0.55}, {"type": "position", "time": 34714, "x": 1.37125, "y": 0.55}, {"type": "position", "time": 34764, "x": 1.37125, "y": 0.55}, {"type": "position", "time": 34950, "x": 1.37125, "y": 0.55}, {"type": "position", "time": 34950, "x": 1.37125, "y": 0.55}, {"type": "position", "time": 35000, "x": 1.37125, "y": 0.55}, {"type": "position", "time": 35051, "x": 1.37125, "y": 0.55}, {"type": "position", "time": 35100, "x": 1.37125, "y": 0.55}, {"type": "position", "time": 35151, "x": 1.37125, "y": 0.55}, {"type": "position", "time": 35201, "x": 1.37125, "y": 0.55}, {"type": "position", "time": 35251, "x": 1.37125, "y": 0.55}, {"type": "position", "time": 35300, "x": 1.37125, "y": 0.55}, {"type": "position", "time": 35350, "x": 1.37125, "y": 0.55}, {"type": "position", "time": 35400, "x": 1.37125, "y": 0.55}, {"type": "position", "time": 35450, "x": 1.37125, "y": 0.55}, {"type": "position", "time": 35501, "x": 1.37125, "y": 0.55}, {"type": "position", "time": 35550, "x": 1.37125, "y": 0.55}, {"type": "position", "time": 35600, "x": 1.37125, "y": 0.55}, {"type": "position", "time": 36393, "x": 1.37125, "y": 0.55}, {"type": "position", "time": 36502, "x": 1.37125, "y": 0.55}, {"type": "position", "time": 36529, "x": 1.37125, "y": 0.55}, {"type": "position", "time": 36579, "x": 1.37125, "y": 0.55}, {"type": "position", "time": 36601, "x": 1.37125, "y": 0.55}, {"type": "position", "time": 36652, "x": 1.37125, "y": 0.55}, {"type": "position", "time": 36702, "x": 1.37125, "y": 0.55}, {"type": "position", "time": 36752, "x": 1.37125, "y": 0.55}, {"type": "position", "time": 36803, "x": 1.37125, "y": 0.55}, {"type": "position", "time": 36852, "x": 1.37125, "y": 0.55}, {"type": "position", "time": 36902, "x": 1.37125, "y": 0.55}, {"type": "position", "time": 36953, "x": 1.37125, "y": 0.55}, {"type": "position", "time": 37002, "x": 1.37125, "y": 0.55}, {"type": "position", "time": 37053, "x": 1.37125, "y": 0.55}, {"type": "position", "time": 37102, "x": 1.37125, "y": 0.55}, {"type": "position", "time": 37222, "x": 1.37125, "y": 0.55}, {"type": "position", "time": 37250, "x": 1.37125, "y": 0.55}, {"type": "position", "time": 37273, "x": 1.37125, "y": 0.55}, {"type": "position", "time": 37322, "x": 1.37125, "y": 0.55}, {"type": "position", "time": 37375, "x": 1.37125, "y": 0.55}, {"type": "position", "time": 37423, "x": 1.37125, "y": 0.55}, {"type": "position", "time": 37476, "x": 1.37125, "y": 0.55}, {"type": "position", "time": 37897, "x": 1.37125, "y": 0.55}, {"type": "position", "time": 37929, "x": 1.37125, "y": 0.55}, {"type": "position", "time": 37947, "x": 1.37125, "y": 0.55}, {"type": "position", "time": 37996, "x": 1.37125, "y": 0.55}, {"type": "position", "time": 38046, "x": 1.37125, "y": 0.55}, {"type": "position", "time": 38096, "x": 1.37125, "y": 0.55}, {"type": "position", "time": 38147, "x": 1.37125, "y": 0.55}, {"type": "position", "time": 38197, "x": 1.37125, "y": 0.55}, {"type": "position", "time": 38251, "x": 1.37125, "y": 0.55}, {"type": "position", "time": 38297, "x": 1.37125, "y": 0.55}, {"type": "position", "time": 38346, "x": 1.37125, "y": 0.55}, {"type": "position", "time": 38397, "x": 1.37125, "y": 0.55}, {"type": "position", "time": 38451, "x": 1.37125, "y": 0.55}, {"type": "position", "time": 38498, "x": 1.37125, "y": 0.55}, {"type": "position", "time": 38547, "x": 1.37125, "y": 0.55}, {"type": "position", "time": 38596, "x": 1.37125, "y": 0.55}, {"type": "position", "time": 38646, "x": 1.37125, "y": 0.55}, {"type": "position", "time": 38696, "x": 1.37125, "y": 0.55}, {"type": "position", "time": 38747, "x": 1.37125, "y": 0.55}, {"type": "position", "time": 38796, "x": 1.37125, "y": 0.55}, {"type": "position", "time": 38869, "x": 1.3925, "y": 0.6433333333333333}, {"type": "position", "time": 38902, "x": 1.395, "y": 0.6466666666666666}, {"type": "position", "time": 38946, "x": 1.395, "y": 0.6466666666666666}, {"type": "position", "time": 38997, "x": 1.395, "y": 0.6466666666666666}, {"type": "position", "time": 39047, "x": 1.395, "y": 0.6466666666666666}, {"type": "position", "time": 39097, "x": 1.395, "y": 0.6466666666666666}, {"type": "position", "time": 39146, "x": 1.395, "y": 0.6466666666666666}, {"type": "position", "time": 39234, "x": 1.37625, "y": 0.645}, {"type": "position", "time": 39254, "x": 1.36125, "y": 0.645}, {"type": "position", "time": 39299, "x": 1.355, "y": 0.645}, {"type": "position", "time": 39347, "x": 1.32875, "y": 0.6283333333333333}, {"type": "position", "time": 39400, "x": 1.29375, "y": 0.625}, {"type": "position", "time": 39448, "x": 1.29375, "y": 0.625}, {"type": "position", "time": 39497, "x": 1.2925, "y": 0.625}, {"type": "position", "time": 39550, "x": 1.28375, "y": 0.61}, {"type": "position", "time": 39596, "x": 1.28125, "y": 0.6016666666666667}, {"type": "position", "time": 39647, "x": 1.2775, "y": 0.585}, {"type": "position", "time": 39698, "x": 1.27875, "y": 0.58}, {"type": "position", "time": 39747, "x": 1.28125, "y": 0.5733333333333334}, {"type": "position", "time": 39800, "x": 1.2775, "y": 0.555}, {"type": "position", "time": 39847, "x": 1.27375, "y": 0.55}, {"type": "position", "time": 39900, "x": 1.26375, "y": 0.5466666666666666}, {"type": "position", "time": 39949, "x": 1.2525, "y": 0.5416666666666666}, {"type": "position", "time": 39996, "x": 1.2525, "y": 0.5416666666666666}, {"type": "position", "time": 40047, "x": 1.2525, "y": 0.5416666666666666}, {"type": "position", "time": 40113, "x": 1.2475, "y": 0.5383333333333333}, {"type": "position", "time": 40147, "x": 1.245, "y": 0.5383333333333333}, {"type": "position", "time": 40199, "x": 1.24375, "y": 0.535}, {"type": "position", "time": 40251, "x": 1.24375, "y": 0.5333333333333333}, {"type": "position", "time": 40297, "x": 1.24375, "y": 0.5333333333333333}, {"type": "position", "time": 40377, "x": 1.2425, "y": 0.53}, {"type": "position", "time": 40397, "x": 1.2425, "y": 0.53}, {"type": "slider", "time": 40410, "value": 0.98}, {"type": "position", "time": 40449, "x": 1.2425, "y": 0.53}, {"type": "position", "time": 40497, "x": 1.2425, "y": 0.53}, {"type": "position", "time": 40546, "x": 1.2425, "y": 0.53}, {"type": "position", "time": 40596, "x": 1.2425, "y": 0.53}, {"type": "position", "time": 40653, "x": 1.24125, "y": 0.53}, {"type": "position", "time": 40725, "x": 1.2225, "y": 0.5466666666666666}, {"type": "position", "time": 40749, "x": 1.2225, "y": 0.5466666666666666}, {"type": "position", "time": 40806, "x": 1.1375, "y": 0.62}, {"type": "position", "time": 40879, "x": 1.08875, "y": 0.6916666666666667}, {"type": "position", "time": 40937, "x": 1.05875, "y": 0.7133333333333334}, {"type": "position", "time": 40965, "x": 1.04, "y": 0.715}, {"type": "position", "time": 41045, "x": 1.0175, "y": 0.6983333333333334}, {"type": "position", "time": 41093, "x": 0.9775, "y": 0.6683333333333333}, {"type": "position", "time": 41116, "x": 0.9575, "y": 0.65}, {"type": "position", "time": 41146, "x": 0.95375, "y": 0.6483333333333333}, {"type": "position", "time": 41203, "x": 0.95375, "y": 0.64}, {"type": "position", "time": 41246, "x": 0.9525, "y": 0.62}, {"type": "position", "time": 41296, "x": 0.95375, "y": 0.6016666666666667}, {"type": "position", "time": 41347, "x": 0.95375, "y": 0.5966666666666667}, {"type": "position", "time": 41397, "x": 0.95375, "y": 0.5966666666666667}, {"type": "position", "time": 41447, "x": 0.95375, "y": 0.5966666666666667}, {"type": "click", "time": 41487, "x": 0.95375, "y": 0.5966666666666667}, {"type": "position", "time": 41496, "x": 0.95375, "y": 0.5966666666666667}, {"type": "position", "time": 41547, "x": 0.95375, "y": 0.5966666666666667}, {"type": "position", "time": 41616, "x": 0.95625, "y": 0.5983333333333334}, {"type": "position", "time": 41649, "x": 0.96875, "y": 0.6033333333333334}, {"type": "position", "time": 41700, "x": 1.015, "y": 0.6083333333333333}, {"type": "position", "time": 41750, "x": 1.1175, "y": 0.6116666666666667}, {"type": "position", "time": 41797, "x": 1.38125, "y": 0.63}, {"type": "position", "time": 41847, "x": 1.38125, "y": 0.63}, {"type": "position", "time": 42041, "x": 1.38125, "y": 0.63}, {"type": "position", "time": 42047, "x": 1.38125, "y": 0.63}, {"type": "position", "time": 42091, "x": 1.38125, "y": 0.63}, {"type": "position", "time": 42141, "x": 1.38125, "y": 0.63}, {"type": "position", "time": 42191, "x": 1.38125, "y": 0.63}, {"type": "position", "time": 42244, "x": 1.38125, "y": 0.63}, {"type": "position", "time": 42291, "x": 1.38125, "y": 0.63}, {"type": "position", "time": 42341, "x": 1.38125, "y": 0.63}, {"type": "position", "time": 42391, "x": 1.38125, "y": 0.63}, {"type": "position", "time": 42455, "x": 1.38125, "y": 0.63}, {"type": "position", "time": 42492, "x": 1.38125, "y": 0.63}, {"type": "position", "time": 42541, "x": 1.38125, "y": 0.63}, {"type": "position", "time": 42590, "x": 1.38125, "y": 0.63}, {"type": "position", "time": 42640, "x": 1.38125, "y": 0.63}, {"type": "position", "time": 42690, "x": 1.38125, "y": 0.63}, {"type": "position", "time": 42753, "x": 1.38125, "y": 0.63}, {"type": "position", "time": 42799, "x": 1.38125, "y": 0.63}, {"type": "position", "time": 42850, "x": 1.38125, "y": 0.63}, {"type": "position", "time": 42899, "x": 1.38125, "y": 0.63}, {"type": "position", "time": 42951, "x": 1.38125, "y": 0.63}, {"type": "position", "time": 43046, "x": 1.38125, "y": 0.63}, {"type": "position", "time": 43069, "x": 1.38125, "y": 0.63}, {"type": "position", "time": 43115, "x": 1.38125, "y": 0.63}, {"type": "position", "time": 43299, "x": 1.38125, "y": 0.63}, {"type": "position", "time": 43356, "x": 1.38125, "y": 0.63}, {"type": "position", "time": 43381, "x": 1.38125, "y": 0.63}, {"type": "position", "time": 43408, "x": 1.38125, "y": 0.63}, {"type": "position", "time": 43458, "x": 1.38125, "y": 0.63}, {"type": "position", "time": 43506, "x": 1.38125, "y": 0.63}, {"type": "position", "time": 43556, "x": 1.38125, "y": 0.63}, {"type": "position", "time": 43606, "x": 1.38125, "y": 0.63}, {"type": "position", "time": 43655, "x": 1.38125, "y": 0.63}, {"type": "position", "time": 43705, "x": 1.38125, "y": 0.63}, {"type": "position", "time": 43755, "x": 1.38125, "y": 0.63}, {"type": "position", "time": 43805, "x": 1.38125, "y": 0.63}, {"type": "position", "time": 43855, "x": 1.38125, "y": 0.63}, {"type": "position", "time": 43917, "x": 1.38125, "y": 0.63}, {"type": "position", "time": 43957, "x": 1.38125, "y": 0.63}, {"type": "position", "time": 44008, "x": 1.38125, "y": 0.63}, {"type": "position", "time": 44061, "x": 1.38125, "y": 0.63}, {"type": "position", "time": 44110, "x": 1.38125, "y": 0.63}, {"type": "position", "time": 44159, "x": 1.38125, "y": 0.63}, {"type": "position", "time": 44207, "x": 1.38125, "y": 0.63}, {"type": "position", "time": 44255, "x": 1.38125, "y": 0.63}, {"type": "position", "time": 44306, "x": 1.38125, "y": 0.63}, {"type": "position", "time": 44356, "x": 1.38125, "y": 0.63}, {"type": "position", "time": 44406, "x": 1.38125, "y": 0.63}, {"type": "position", "time": 44456, "x": 1.38125, "y": 0.63}, {"type": "position", "time": 44615, "x": 1.38125, "y": 0.63}, {"type": "position", "time": 44617, "x": 1.38125, "y": 0.63}, {"type": "position", "time": 44666, "x": 1.38125, "y": 0.63}, {"type": "position", "time": 44722, "x": 1.38125, "y": 0.63}, {"type": "position", "time": 44766, "x": 1.38125, "y": 0.63}, {"type": "position", "time": 44821, "x": 1.38125, "y": 0.63}, {"type": "position", "time": 44865, "x": 1.38125, "y": 0.63}, {"type": "position", "time": 44915, "x": 1.38125, "y": 0.63}, {"type": "position", "time": 44966, "x": 1.38125, "y": 0.63}, {"type": "position", "time": 45015, "x": 1.38125, "y": 0.63}, {"type": "position", "time": 45065, "x": 1.38125, "y": 0.63}, {"type": "position", "time": 45125, "x": 1.38125, "y": 0.63}, {"type": "position", "time": 45164, "x": 1.38125, "y": 0.63}, {"type": "position", "time": 45215, "x": 1.38125, "y": 0.63}, {"type": "position", "time": 45294, "x": 1.38125, "y": 0.63}, {"type": "position", "time": 45315, "x": 1.38125, "y": 0.63}, {"type": "position", "time": 45365, "x": 1.38125, "y": 0.63}, {"type": "position", "time": 45415, "x": 1.38125, "y": 0.63}, {"type": "position", "time": 45465, "x": 1.38125, "y": 0.63}, {"type": "position", "time": 45516, "x": 1.38125, "y": 0.63}, {"type": "position", "time": 45567, "x": 1.38125, "y": 0.63}, {"type": "position", "time": 45615, "x": 1.38125, "y": 0.63}, {"type": "position", "time": 45666, "x": 1.38125, "y": 0.63}, {"type": "position", "time": 45715, "x": 1.38125, "y": 0.63}, {"type": "position", "time": 45775, "x": 1.905, "y": 0.23333333333333334}, {"type": "position", "time": 45843, "x": 1.89625, "y": 0.24333333333333335}, {"type": "position", "time": 45868, "x": 1.895, "y": 0.245}, {"type": "position", "time": 45920, "x": 1.89375, "y": 0.24833333333333332}, {"type": "position", "time": 45965, "x": 1.8925, "y": 0.24833333333333332}, {"type": "position", "time": 46015, "x": 1.89125, "y": 0.24833333333333332}, {"type": "position", "time": 46065, "x": 1.89125, "y": 0.24833333333333332}, {"type": "position", "time": 46118, "x": 1.89, "y": 0.25}, {"type": "position", "time": 46166, "x": 1.88875, "y": 0.25}, {"type": "position", "time": 46217, "x": 1.88875, "y": 0.25}, {"type": "position", "time": 46272, "x": 1.88875, "y": 0.25}, {"type": "position", "time": 46478, "x": 1.88875, "y": 0.25}, {"type": "position", "time": 46485, "x": 1.88875, "y": 0.25}, {"type": "position", "time": 46528, "x": 1.88875, "y": 0.25}, {"type": "position", "time": 46578, "x": 1.88875, "y": 0.25}, {"type": "position", "time": 46691, "x": 1.88875, "y": 0.22333333333333333}, {"type": "position", "time": 46700, "x": 1.88875, "y": 0.22}, {"type": "position", "time": 46749, "x": 1.88875, "y": 0.21333333333333335}, {"type": "position", "time": 46799, "x": 1.88875, "y": 0.20833333333333334}, {"type": "position", "time": 46841, "x": 1.88875, "y": 0.20833333333333334}, {"type": "position", "time": 46891, "x": 1.88875, "y": 0.20833333333333334}, {"type": "position", "time": 47015, "x": 1.8925, "y": 0.24166666666666667}, {"type": "position", "time": 47024, "x": 1.8925, "y": 0.24333333333333335}, {"type": "position", "time": 47066, "x": 1.8925, "y": 0.24833333333333332}, {"type": "position", "time": 47115, "x": 1.8925, "y": 0.24833333333333332}, {"type": "position", "time": 47256, "x": 1.57625, "y": 0.38}, {"type": "position", "time": 47509, "x": 1.04, "y": 0.5283333333333333}, {"type": "position", "time": 47525, "x": 1.01625, "y": 0.5283333333333333}, {"type": "position", "time": 47558, "x": 0.99625, "y": 0.535}, {"type": "position", "time": 47609, "x": 0.93625, "y": 0.56}, {"type": "position", "time": 47662, "x": 0.865, "y": 0.6116666666666667}, {"type": "position", "time": 47711, "x": 0.85125, "y": 0.6366666666666667}, {"type": "position", "time": 47759, "x": 0.85125, "y": 0.6383333333333333}, {"type": "position", "time": 47808, "x": 0.86125, "y": 0.6383333333333333}, {"type": "position", "time": 47859, "x": 0.91125, "y": 0.6333333333333333}, {"type": "position", "time": 47908, "x": 0.9275, "y": 0.635}, {"type": "position", "time": 47958, "x": 0.9275, "y": 0.635}, {"type": "position", "time": 48011, "x": 0.93, "y": 0.6333333333333333}, {"type": "position", "time": 48058, "x": 0.93, "y": 0.6333333333333333}, {"type": "position", "time": 48114, "x": 0.93, "y": 0.6333333333333333}, {"type": "position", "time": 48158, "x": 0.93, "y": 0.6333333333333333}, {"type": "position", "time": 48209, "x": 0.93, "y": 0.635}, {"type": "click", "time": 48243, "x": 0.93, "y": 0.635}, {"type": "position", "time": 48258, "x": 0.93, "y": 0.635}, {"type": "position", "time": 48309, "x": 0.93, "y": 0.635}, {"type": "position", "time": 48360, "x": 0.935, "y": 0.635}, {"type": "position", "time": 48408, "x": 1.095, "y": 0.6733333333333333}, {"type": "position", "time": 48460, "x": 1.32, "y": 0.7366666666666667}, {"type": "position", "time": 48508, "x": 1.3725, "y": 0.7433333333333333}, {"type": "position", "time": 48559, "x": 1.3775, "y": 0.7433333333333333}, {"type": "position", "time": 48608, "x": 1.3775, "y": 0.7433333333333333}, {"type": "position", "time": 48658, "x": 1.3775, "y": 0.7433333333333333}, {"type": "position", "time": 48708, "x": 1.3775, "y": 0.7433333333333333}, {"type": "position", "time": 48759, "x": 1.3775, "y": 0.7433333333333333}, {"type": "position", "time": 48825, "x": 1.3275, "y": 0.7166666666666667}, {"type": "position", "time": 48862, "x": 1.13875, "y": 0.6416666666666667}, {"type": "position", "time": 48908, "x": 0.9725, "y": 0.615}, {"type": "position", "time": 48962, "x": 0.89125, "y": 0.62}, {"type": "position", "time": 49009, "x": 0.82, "y": 0.625}, {"type": "position", "time": 49058, "x": 0.7975, "y": 0.6216666666666667}, {"type": "position", "time": 49118, "x": 0.79875, "y": 0.6183333333333333}, {"type": "position", "time": 49159, "x": 0.8375, "y": 0.5866666666666667}, {"type": "position", "time": 49213, "x": 0.85625, "y": 0.5716666666666667}, {"type": "position", "time": 49258, "x": 0.86625, "y": 0.565}, {"type": "position", "time": 49308, "x": 0.8675, "y": 0.565}, {"type": "position", "time": 49358, "x": 0.8675, "y": 0.565}, {"type": "position", "time": 49409, "x": 0.8675, "y": 0.565}, {"type": "position", "time": 49459, "x": 0.86875, "y": 0.5633333333333334}, {"type": "position", "time": 49537, "x": 0.8775, "y": 0.5583333333333333}, {"type": "position", "time": 49581, "x": 0.88875, "y": 0.5516666666666666}, {"type": "position", "time": 49613, "x": 0.89, "y": 0.5516666666666666}, {"type": "position", "time": 49669, "x": 0.8925, "y": 0.5433333333333333}, {"type": "position", "time": 49738, "x": 0.8925, "y": 0.52}, {"type": "position", "time": 49779, "x": 0.89125, "y": 0.5166666666666667}, {"type": "position", "time": 49808, "x": 0.89125, "y": 0.5166666666666667}, {"type": "position", "time": 49858, "x": 0.89125, "y": 0.5166666666666667}, {"type": "position", "time": 49920, "x": 0.89125, "y": 0.5166666666666667}, {"type": "position", "time": 49965, "x": 0.89125, "y": 0.5166666666666667}, {"type": "position", "time": 50008, "x": 0.89125, "y": 0.5166666666666667}, {"type": "position", "time": 50059, "x": 0.89125, "y": 0.5166666666666667}, {"type": "position", "time": 50108, "x": 0.89125, "y": 0.5166666666666667}, {"type": "position", "time": 50158, "x": 0.89125, "y": 0.5166666666666667}, {"type": "position", "time": 50209, "x": 0.89125, "y": 0.5166666666666667}, {"type": "position", "time": 50258, "x": 0.89125, "y": 0.5166666666666667}, {"type": "position", "time": 50340, "x": 0.89125, "y": 0.5166666666666667}, {"type": "position", "time": 50359, "x": 0.89125, "y": 0.5166666666666667}, {"type": "position", "time": 50408, "x": 0.89125, "y": 0.5166666666666667}, {"type": "position", "time": 50459, "x": 0.89125, "y": 0.5166666666666667}, {"type": "position", "time": 50508, "x": 0.89125, "y": 0.5166666666666667}, {"type": "position", "time": 50558, "x": 0.89125, "y": 0.5166666666666667}, {"type": "position", "time": 50622, "x": 0.89125, "y": 0.5166666666666667}, {"type": "position", "time": 50661, "x": 0.89125, "y": 0.5166666666666667}, {"type": "position", "time": 50708, "x": 0.89125, "y": 0.5166666666666667}, {"type": "position", "time": 50760, "x": 0.89125, "y": 0.5166666666666667}, {"type": "position", "time": 50808, "x": 0.89125, "y": 0.5166666666666667}, {"type": "click", "time": 51546, "x": 0.89125, "y": 0.5166666666666667}, {"type": "position", "time": 51563, "x": 0.98, "y": 0.5466666666666666}, {"type": "position", "time": 51745, "x": 0.98, "y": 0.5466666666666666}, {"type": "position", "time": 51753, "x": 0.98, "y": 0.5466666666666666}, {"type": "position", "time": 51795, "x": 0.98, "y": 0.5466666666666666}, {"type": "position", "time": 51845, "x": 0.98, "y": 0.5466666666666666}, {"type": "position", "time": 51894, "x": 0.98, "y": 0.5466666666666666}, {"type": "position", "time": 51946, "x": 0.98, "y": 0.5466666666666666}, {"type": "position", "time": 51996, "x": 0.98, "y": 0.5466666666666666}, {"type": "position", "time": 52045, "x": 0.98, "y": 0.5466666666666666}, {"type": "position", "time": 52098, "x": 0.98, "y": 0.5466666666666666}, {"type": "position", "time": 52146, "x": 0.98, "y": 0.5466666666666666}, {"type": "position", "time": 52195, "x": 0.98, "y": 0.5466666666666666}, {"type": "position", "time": 52245, "x": 0.98, "y": 0.5466666666666666}, {"type": "position", "time": 52295, "x": 0.98, "y": 0.5466666666666666}, {"type": "position", "time": 52345, "x": 0.98, "y": 0.5466666666666666}, {"type": "position", "time": 52394, "x": 0.98, "y": 0.5466666666666666}, {"type": "position", "time": 52444, "x": 0.98, "y": 0.5466666666666666}, {"type": "position", "time": 52496, "x": 0.98, "y": 0.5466666666666666}, {"type": "position", "time": 52545, "x": 0.98, "y": 0.5466666666666666}, {"type": "position", "time": 52594, "x": 0.98, "y": 0.5466666666666666}, {"type": "position", "time": 53308, "x": 0.98, "y": 0.5466666666666666}, {"type": "position", "time": 53336, "x": 0.98, "y": 0.5466666666666666}, {"type": "position", "time": 53358, "x": 0.98, "y": 0.5466666666666666}, {"type": "position", "time": 53408, "x": 0.98, "y": 0.5466666666666666}, {"type": "position", "time": 53460, "x": 0.98, "y": 0.5466666666666666}, {"type": "position", "time": 53513, "x": 0.98, "y": 0.5466666666666666}, {"type": "position", "time": 53558, "x": 0.98, "y": 0.5466666666666666}, {"type": "position", "time": 53607, "x": 0.98, "y": 0.5466666666666666}, {"type": "position", "time": 53657, "x": 0.98, "y": 0.5466666666666666}, {"type": "position", "time": 53708, "x": 0.98, "y": 0.5466666666666666}, {"type": "position", "time": 53758, "x": 0.98, "y": 0.5466666666666666}, {"type": "position", "time": 53808, "x": 0.98, "y": 0.5466666666666666}, {"type": "position", "time": 53862, "x": 0.98, "y": 0.5466666666666666}, {"type": "position", "time": 53908, "x": 0.98, "y": 0.5466666666666666}, {"type": "position", "time": 54026, "x": 0.98, "y": 0.5466666666666666}, {"type": "position", "time": 54031, "x": 0.98, "y": 0.5466666666666666}, {"type": "position", "time": 54076, "x": 0.98, "y": 0.5466666666666666}, {"type": "position", "time": 54126, "x": 0.98, "y": 0.5466666666666666}, {"type": "position", "time": 54177, "x": 0.98, "y": 0.5466666666666666}, {"type": "position", "time": 54226, "x": 0.98, "y": 0.5466666666666666}, {"type": "position", "time": 54276, "x": 0.98, "y": 0.5466666666666666}, {"type": "position", "time": 54747, "x": 0.98, "y": 0.5466666666666666}, {"type": "position", "time": 54758, "x": 0.98, "y": 0.5466666666666666}, {"type": "position", "time": 54797, "x": 0.98, "y": 0.5466666666666666}, {"type": "position", "time": 54848, "x": 0.98, "y": 0.5466666666666666}, {"type": "position", "time": 55003, "x": 0.98, "y": 0.5466666666666666}, {"type": "position", "time": 55017, "x": 0.98, "y": 0.5466666666666666}, {"type": "position", "time": 55053, "x": 0.98, "y": 0.5466666666666666}, {"type": "position", "time": 55103, "x": 0.98, "y": 0.5466666666666666}, {"type": "position", "time": 55153, "x": 0.98, "y": 0.5466666666666666}, {"type": "position", "time": 55203, "x": 0.98, "y": 0.5466666666666666}, {"type": "position", "time": 55253, "x": 0.98, "y": 0.5466666666666666}, {"type": "position", "time": 55304, "x": 0.98, "y": 0.5466666666666666}, {"type": "position", "time": 55353, "x": 0.98, "y": 0.5466666666666666}, {"type": "position", "time": 55404, "x": 0.98, "y": 0.5466666666666666}, {"type": "position", "time": 55453, "x": 0.98, "y": 0.5466666666666666}, {"type": "position", "time": 55503, "x": 0.98, "y": 0.5466666666666666}, {"type": "position", "time": 55553, "x": 0.98, "y": 0.5466666666666666}, {"type": "position", "time": 55604, "x": 0.98, "y": 0.5466666666666666}, {"type": "position", "time": 55653, "x": 0.98, "y": 0.5466666666666666}, {"type": "position", "time": 55703, "x": 0.98, "y": 0.5466666666666666}, {"type": "position", "time": 55753, "x": 0.98, "y": 0.5466666666666666}, {"type": "position", "time": 56174, "x": 0.98, "y": 0.5466666666666666}, {"type": "position", "time": 56180, "x": 0.98, "y": 0.5466666666666666}, {"type": "position", "time": 56225, "x": 0.98, "y": 0.5466666666666666}, {"type": "position", "time": 56274, "x": 0.98, "y": 0.5466666666666666}, {"type": "position", "time": 56324, "x": 0.98, "y": 0.5466666666666666}, {"type": "position", "time": 56374, "x": 0.98, "y": 0.5466666666666666}, {"type": "position", "time": 57307, "x": 0.98, "y": 0.5466666666666666}, {"type": "position", "time": 57317, "x": 0.98, "y": 0.5466666666666666}, {"type": "position", "time": 57358, "x": 0.98, "y": 0.5466666666666666}, {"type": "keyup", "time": 57373, "key": "S", "keyCode": 83}, {"type": "position", "time": 57407, "x": 0.98, "y": 0.5466666666666666}, {"type": "position", "time": 57457, "x": 0.98, "y": 0.5466666666666666}, {"type": "keyup", "time": 57471, "key": "H", "keyCode": 72}, {"type": "position", "time": 57507, "x": 0.98, "y": 0.5466666666666666}, {"type": "position", "time": 57557, "x": 0.98, "y": 0.5466666666666666}, {"type": "position", "time": 57607, "x": 0.98, "y": 0.5466666666666666}, {"type": "keyup", "time": 57753, "key": "E", "keyCode": 69}, {"type": "keyup", "time": 57753, "key": " ", "keyCode": 32}, {"type": "position", "time": 57758, "x": 0.98, "y": 0.5466666666666666}, {"type": "position", "time": 57759, "x": 0.98, "y": 0.5466666666666666}, {"type": "position", "time": 57808, "x": 0.98, "y": 0.5466666666666666}, {"type": "position", "time": 57858, "x": 0.98, "y": 0.5466666666666666}, {"type": "position", "time": 57907, "x": 0.98, "y": 0.5466666666666666}, {"type": "position", "time": 57958, "x": 0.98, "y": 0.5466666666666666}, {"type": "position", "time": 58007, "x": 0.98, "y": 0.5466666666666666}, {"type": "position", "time": 58057, "x": 0.98, "y": 0.5466666666666666}, {"type": "keyup", "time": 58098, "key": "S", "keyCode": 83}, {"type": "position", "time": 58108, "x": 0.98, "y": 0.5466666666666666}, {"type": "position", "time": 58157, "x": 0.98, "y": 0.5466666666666666}, {"type": "position", "time": 58208, "x": 0.98, "y": 0.5466666666666666}, {"type": "position", "time": 58258, "x": 0.98, "y": 0.5466666666666666}, {"type": "position", "time": 58307, "x": 0.98, "y": 0.5466666666666666}, {"type": "position", "time": 58358, "x": 0.98, "y": 0.5466666666666666}, {"type": "position", "time": 58408, "x": 0.98, "y": 0.5466666666666666}, {"type": "position", "time": 58458, "x": 0.98, "y": 0.5466666666666666}, {"type": "keyup", "time": 58469, "key": "L", "keyCode": 76}, {"type": "position", "time": 58508, "x": 0.98, "y": 0.5466666666666666}, {"type": "position", "time": 58558, "x": 0.98, "y": 0.5466666666666666}, {"type": "position", "time": 58608, "x": 0.98, "y": 0.5466666666666666}, {"type": "position", "time": 58657, "x": 0.98, "y": 0.5466666666666666}, {"type": "position", "time": 58716, "x": 0.98, "y": 0.5466666666666666}, {"type": "position", "time": 58758, "x": 0.98, "y": 0.5466666666666666}, {"type": "position", "time": 58807, "x": 0.98, "y": 0.5466666666666666}, {"type": "keyup", "time": 58819, "key": "E", "keyCode": 69}, {"type": "position", "time": 58857, "x": 0.98, "y": 0.5466666666666666}, {"type": "position", "time": 58911, "x": 0.98, "y": 0.5466666666666666}, {"type": "position", "time": 58957, "x": 0.98, "y": 0.5466666666666666}, {"type": "position", "time": 59008, "x": 0.98, "y": 0.5466666666666666}, {"type": "keyup", "time": 59029, "key": "P", "keyCode": 80}, {"type": "position", "time": 59058, "x": 0.98, "y": 0.5466666666666666}, {"type": "position", "time": 59108, "x": 0.98, "y": 0.5466666666666666}, {"type": "position", "time": 59162, "x": 0.98, "y": 0.5466666666666666}, {"type": "position", "time": 59216, "x": 0.98, "y": 0.5466666666666666}, {"type": "position", "time": 59258, "x": 0.98, "y": 0.5466666666666666}, {"type": "keyup", "time": 59274, "key": "T", "keyCode": 84}, {"type": "position", "time": 59307, "x": 0.98, "y": 0.5466666666666666}, {"type": "position", "time": 59357, "x": 0.98, "y": 0.5466666666666666}, {"type": "position", "time": 59417, "x": 0.98, "y": 0.5466666666666666}, {"type": "position", "time": 59457, "x": 0.98, "y": 0.5466666666666666}, {"type": "keyup", "time": 59508, "key": " ", "keyCode": 32}, {"type": "position", "time": 59509, "x": 0.98, "y": 0.5466666666666666}, {"type": "position", "time": 59558, "x": 0.98, "y": 0.5466666666666666}, {"type": "position", "time": 59608, "x": 0.98, "y": 0.5466666666666666}, {"type": "position", "time": 59658, "x": 0.98, "y": 0.5466666666666666}, {"type": "position", "time": 59708, "x": 0.98, "y": 0.5466666666666666}, {"type": "keyup", "time": 59728, "key": "O", "keyCode": 79}, {"type": "position", "time": 59757, "x": 0.98, "y": 0.5466666666666666}, {"type": "position", "time": 59815, "x": 0.98, "y": 0.5466666666666666}, {"type": "position", "time": 59858, "x": 0.98, "y": 0.5466666666666666}, {"type": "keyup", "time": 59884, "key": "N", "keyCode": 78}, {"type": "position", "time": 59908, "x": 0.98, "y": 0.5466666666666666}, {"type": "position", "time": 59958, "x": 0.98, "y": 0.5466666666666666}, {"type": "position", "time": 60008, "x": 0.98, "y": 0.5466666666666666}, {"type": "position", "time": 60058, "x": 0.98, "y": 0.5466666666666666}, {"type": "keyup", "time": 60076, "key": " ", "keyCode": 32}, {"type": "position", "time": 60108, "x": 0.98, "y": 0.5466666666666666}, {"type": "position", "time": 60157, "x": 0.98, "y": 0.5466666666666666}, {"type": "position", "time": 60209, "x": 0.98, "y": 0.5466666666666666}, {"type": "keyup", "time": 60221, "key": "T", "keyCode": 84}, {"type": "position", "time": 60258, "x": 0.98, "y": 0.5466666666666666}, {"type": "position", "time": 60308, "x": 0.98, "y": 0.5466666666666666}, {"type": "keyup", "time": 60330, "key": "H", "keyCode": 72}, {"type": "position", "time": 60365, "x": 0.98, "y": 0.5466666666666666}, {"type": "position", "time": 60408, "x": 0.98, "y": 0.5466666666666666}, {"type": "position", "time": 60458, "x": 0.98, "y": 0.5466666666666666}, {"type": "keyup", "time": 60477, "key": "E", "keyCode": 69}, {"type": "position", "time": 60508, "x": 0.98, "y": 0.5466666666666666}, {"type": "position", "time": 60557, "x": 0.98, "y": 0.5466666666666666}, {"type": "keyup", "time": 60590, "key": " ", "keyCode": 32}, {"type": "position", "time": 60609, "x": 0.98, "y": 0.5466666666666666}, {"type": "position", "time": 60658, "x": 0.98, "y": 0.5466666666666666}, {"type": "position", "time": 60708, "x": 0.98, "y": 0.5466666666666666}, {"type": "position", "time": 60757, "x": 0.98, "y": 0.5466666666666666}, {"type": "position", "time": 60808, "x": 0.98, "y": 0.5466666666666666}, {"type": "position", "time": 60857, "x": 0.98, "y": 0.5466666666666666}, {"type": "position", "time": 60914, "x": 0.98, "y": 0.5466666666666666}, {"type": "position", "time": 60958, "x": 0.98, "y": 0.5466666666666666}, {"type": "position", "time": 61007, "x": 0.98, "y": 0.5466666666666666}, {"type": "keyup", "time": 61014, "key": "P", "keyCode": 80}, {"type": "position", "time": 61058, "x": 0.98, "y": 0.5466666666666666}, {"type": "position", "time": 61108, "x": 0.98, "y": 0.5466666666666666}, {"type": "position", "time": 61163, "x": 0.98, "y": 0.5466666666666666}, {"type": "keyup", "time": 61171, "key": "L", "keyCode": 76}, {"type": "position", "time": 61210, "x": 0.98, "y": 0.5466666666666666}, {"type": "position", "time": 61258, "x": 0.98, "y": 0.5466666666666666}, {"type": "position", "time": 61307, "x": 0.98, "y": 0.5466666666666666}, {"type": "position", "time": 61357, "x": 0.98, "y": 0.5466666666666666}, {"type": "position", "time": 61407, "x": 0.98, "y": 0.5466666666666666}, {"type": "keyup", "time": 61424, "key": "A", "keyCode": 65}, {"type": "position", "time": 61457, "x": 0.98, "y": 0.5466666666666666}, {"type": "position", "time": 61684, "x": 0.98, "y": 0.5466666666666666}, {"type": "keyup", "time": 61696, "key": "N", "keyCode": 78}, {"type": "keyup", "time": 62160, "key": "E", "keyCode": 69}, {"type": "position", "time": 62165, "x": 0.98, "y": 0.5466666666666666}, {"type": "position", "time": 62205, "x": 0.98, "y": 0.5466666666666666}, {"type": "position", "time": 62239, "x": 0.98, "y": 0.5466666666666666}, {"type": "position", "time": 62266, "x": 0.98, "y": 0.5466666666666666}, {"type": "position", "time": 62316, "x": 0.98, "y": 0.5466666666666666}, {"type": "position", "time": 62365, "x": 0.98, "y": 0.5466666666666666}, {"type": "position", "time": 62415, "x": 0.98, "y": 0.5466666666666666}, {"type": "position", "time": 62465, "x": 0.98, "y": 0.5466666666666666}, {"type": "position", "time": 62516, "x": 0.98, "y": 0.5466666666666666}, {"type": "position", "time": 62565, "x": 0.98, "y": 0.5466666666666666}, {"type": "position", "time": 62615, "x": 0.98, "y": 0.5466666666666666}, {"type": "position", "time": 62666, "x": 0.98, "y": 0.5466666666666666}, {"type": "position", "time": 62716, "x": 0.98, "y": 0.5466666666666666}, {"type": "position", "time": 62773, "x": 0.98, "y": 0.5483333333333333}, {"type": "position", "time": 62818, "x": 0.9675, "y": 0.5933333333333334}, {"type": "position", "time": 62866, "x": 0.9625, "y": 0.6283333333333333}, {"type": "position", "time": 62915, "x": 0.96, "y": 0.6316666666666667}, {"type": "position", "time": 62965, "x": 0.96, "y": 0.6316666666666667}, {"type": "position", "time": 63019, "x": 0.96, "y": 0.6316666666666667}, {"type": "position", "time": 63066, "x": 0.95875, "y": 0.6333333333333333}, {"type": "click", "time": 63178, "x": 0.95875, "y": 0.6333333333333333}, {"type": "position", "time": 63179, "x": 0.95875, "y": 0.6333333333333333}, {"type": "position", "time": 63192, "x": 0.95875, "y": 0.6333333333333333}, {"type": "position", "time": 63232, "x": 0.96, "y": 0.635}, {"type": "position", "time": 63280, "x": 1.01125, "y": 0.6616666666666666}, {"type": "position", "time": 63335, "x": 1.12875, "y": 0.68}, {"type": "position", "time": 63382, "x": 1.16125, "y": 0.6833333333333333}, {"type": "position", "time": 63429, "x": 1.16625, "y": 0.685}, {"type": "position", "time": 63480, "x": 1.16625, "y": 0.685}, {"type": "position", "time": 63530, "x": 1.16625, "y": 0.685}, {"type": "position", "time": 63579, "x": 1.16625, "y": 0.685}, {"type": "position", "time": 63629, "x": 1.16625, "y": 0.685}, {"type": "position", "time": 63679, "x": 1.16625, "y": 0.685}, {"type": "position", "time": 63729, "x": 1.16625, "y": 0.685}, {"type": "position", "time": 63780, "x": 1.16625, "y": 0.685}, {"type": "position", "time": 63829, "x": 1.16625, "y": 0.685}, {"type": "position", "time": 63896, "x": 1.14875, "y": 0.6766666666666666}, {"type": "position", "time": 63930, "x": 1.10875, "y": 0.665}, {"type": "position", "time": 63980, "x": 1.0925, "y": 0.6616666666666666}, {"type": "position", "time": 64032, "x": 1.06875, "y": 0.6566666666666666}, {"type": "position", "time": 64080, "x": 1.0325, "y": 0.6433333333333333}, {"type": "position", "time": 64132, "x": 1.02, "y": 0.6433333333333333}, {"type": "position", "time": 64180, "x": 1.0125, "y": 0.6466666666666666}, {"type": "position", "time": 64230, "x": 1.01125, "y": 0.6533333333333333}, {"type": "position", "time": 64282, "x": 1.01, "y": 0.6666666666666666}, {"type": "position", "time": 64329, "x": 1.01, "y": 0.675}, {"type": "position", "time": 64379, "x": 1.01, "y": 0.6833333333333333}, {"type": "position", "time": 64434, "x": 1.0075, "y": 0.6866666666666666}, {"type": "position", "time": 64479, "x": 1.00625, "y": 0.6883333333333334}, {"type": "position", "time": 64530, "x": 0.99625, "y": 0.6883333333333334}, {"type": "position", "time": 64579, "x": 0.97875, "y": 0.68}, {"type": "position", "time": 64747, "x": 0.93625, "y": 0.66}, {"type": "position", "time": 64748, "x": 0.93625, "y": 0.66}, {"type": "position", "time": 64797, "x": 0.93625, "y": 0.66}, {"type": "position", "time": 64861, "x": 1.04125, "y": 0.665}, {"type": "position", "time": 64902, "x": 1.16, "y": 0.685}, {"type": "position", "time": 64947, "x": 1.1825, "y": 0.6883333333333334}, {"type": "position", "time": 64997, "x": 1.1825, "y": 0.6883333333333334}, {"type": "position", "time": 65048, "x": 1.205, "y": 0.6883333333333334}, {"type": "position", "time": 65097, "x": 1.245, "y": 0.69}, {"type": "position", "time": 65146, "x": 1.25, "y": 0.69}, {"type": "position", "time": 65197, "x": 1.25, "y": 0.69}, {"type": "position", "time": 65276, "x": 1.24375, "y": 0.6833333333333333}, {"type": "position", "time": 65299, "x": 1.23875, "y": 0.68}, {"type": "position", "time": 65346, "x": 1.23625, "y": 0.6766666666666666}, {"type": "position", "time": 65407, "x": 1.23625, "y": 0.675}, {"type": "position", "time": 65446, "x": 1.2375, "y": 0.6716666666666666}, {"type": "position", "time": 65497, "x": 1.23875, "y": 0.67}, {"type": "position", "time": 65547, "x": 1.23875, "y": 0.67}, {"type": "position", "time": 65615, "x": 1.2375, "y": 0.6616666666666666}, {"type": "slider", "time": 65645, "value": 0.97}, {"type": "position", "time": 65648, "x": 1.2375, "y": 0.6616666666666666}, {"type": "position", "time": 65696, "x": 1.2375, "y": 0.6616666666666666}, {"type": "position", "time": 65746, "x": 1.2375, "y": 0.6616666666666666}, {"type": "position", "time": 65800, "x": 1.235, "y": 0.6616666666666666}, {"type": "position", "time": 65847, "x": 1.21, "y": 0.6683333333333333}, {"type": "position", "time": 65900, "x": 1.12375, "y": 0.7016666666666667}, {"type": "position", "time": 65948, "x": 1.04625, "y": 0.7433333333333333}, {"type": "position", "time": 65996, "x": 1.01375, "y": 0.7733333333333333}, {"type": "position", "time": 66050, "x": 0.9375, "y": 0.7916666666666666}, {"type": "position", "time": 66097, "x": 0.91, "y": 0.7866666666666666}, {"type": "position", "time": 66147, "x": 0.91625, "y": 0.78}, {"type": "position", "time": 66197, "x": 0.93625, "y": 0.775}, {"type": "position", "time": 66246, "x": 0.93875, "y": 0.775}, {"type": "position", "time": 66300, "x": 0.95, "y": 0.7716666666666666}, {"type": "position", "time": 66348, "x": 0.955, "y": 0.7716666666666666}, {"type": "position", "time": 66397, "x": 0.955, "y": 0.7716666666666666}, {"type": "position", "time": 66447, "x": 0.955, "y": 0.7716666666666666}, {"type": "click", "time": 66488, "x": 0.955, "y": 0.7716666666666666}, {"type": "position", "time": 66496, "x": 0.955, "y": 0.7716666666666666}, {"type": "position", "time": 66553, "x": 0.97625, "y": 0.7716666666666666}, {"type": "position", "time": 66601, "x": 1.04625, "y": 0.7733333333333333}, {"type": "position", "time": 66647, "x": 1.07875, "y": 0.765}, {"type": "position", "time": 66717, "x": 0.98625, "y": 0.3433333333333333}, {"type": "position", "time": 66756, "x": 0.83875, "y": 0.013333333333333334}, {"type": "position", "time": 66810, "x": 0.83875, "y": 0.013333333333333334}, {"type": "position", "time": 66846, "x": 0.83875, "y": 0.013333333333333334}, {"type": "position", "time": 66896, "x": 0.83875, "y": 0.013333333333333334}, {"type": "position", "time": 66949, "x": 0.83875, "y": 0.013333333333333334}, {"type": "position", "time": 66997, "x": 0.83875, "y": 0.013333333333333334}, {"type": "position", "time": 67046, "x": 0.83875, "y": 0.013333333333333334}, {"type": "position", "time": 67097, "x": 0.83875, "y": 0.013333333333333334}, {"type": "position", "time": 67146, "x": 0.83875, "y": 0.013333333333333334}, {"type": "position", "time": 67196, "x": 0.83875, "y": 0.013333333333333334}, {"type": "position", "time": 67262, "x": 1.04, "y": 0.10833333333333334}, {"type": "position", "time": 67341, "x": 1.1025, "y": 0.435}, {"type": "position", "time": 67428, "x": 0.985, "y": 0.685}, {"type": "position", "time": 67444, "x": 0.96, "y": 0.6883333333333334}, {"type": "position", "time": 67477, "x": 0.85125, "y": 0.6666666666666666}, {"type": "position", "time": 67531, "x": 0.545, "y": 0.5466666666666666}, {"type": "position", "time": 67748, "x": 0.2875, "y": 0.2833333333333333}, {"type": "position", "time": 67761, "x": 0.2875, "y": 0.2833333333333333}, {"type": "position", "time": 67798, "x": 0.2875, "y": 0.2833333333333333}, {"type": "position", "time": 67847, "x": 0.2875, "y": 0.2833333333333333}, {"type": "position", "time": 67897, "x": 0.2875, "y": 0.2833333333333333}, {"type": "position", "time": 67947, "x": 0.2875, "y": 0.2833333333333333}, {"type": "position", "time": 67998, "x": 0.2875, "y": 0.2833333333333333}, {"type": "position", "time": 68047, "x": 0.2875, "y": 0.2833333333333333}, {"type": "position", "time": 68255, "x": 0.2875, "y": 0.2833333333333333}, {"type": "position", "time": 69114, "x": 0.2875, "y": 0.2833333333333333}, {"type": "position", "time": 70099, "x": 0.2875, "y": 0.2833333333333333}, {"type": "position", "time": 71097, "x": 0.2875, "y": 0.2833333333333333}, {"type": "position", "time": 72098, "x": 0.2875, "y": 0.2833333333333333}, {"type": "position", "time": 73097, "x": 0.2875, "y": 0.2833333333333333}, {"type": "position", "time": 74134, "x": 1.0925, "y": 0.2733333333333333}, {"type": "position", "time": 74171, "x": 1.11125, "y": 0.4816666666666667}, {"type": "position", "time": 74219, "x": 1.09, "y": 0.5583333333333333}, {"type": "position", "time": 74266, "x": 1.02125, "y": 0.575}, {"type": "position", "time": 74313, "x": 0.9525, "y": 0.58}, {"type": "position", "time": 74342, "x": 0.8975, "y": 0.555}, {"type": "position", "time": 74384, "x": 0.87875, "y": 0.545}, {"type": "position", "time": 74433, "x": 0.87875, "y": 0.545}, {"type": "position", "time": 74483, "x": 0.87875, "y": 0.545}, {"type": "position", "time": 74555, "x": 0.85875, "y": 0.5766666666666667}, {"type": "position", "time": 74587, "x": 0.81625, "y": 0.5983333333333334}, {"type": "position", "time": 74641, "x": 0.70125, "y": 0.6333333333333333}, {"type": "position", "time": 74684, "x": 0.68625, "y": 0.6416666666666667}, {"type": "position", "time": 74733, "x": 0.68625, "y": 0.6416666666666667}, {"type": "position", "time": 74810, "x": 0.64875, "y": 0.56}, {"type": "position", "time": 74834, "x": 0.645, "y": 0.5483333333333333}, {"type": "position", "time": 74884, "x": 0.645, "y": 0.5483333333333333}, {"type": "position", "time": 74933, "x": 0.645, "y": 0.5483333333333333}, {"type": "position", "time": 74984, "x": 0.645, "y": 0.5483333333333333}, {"type": "position", "time": 75034, "x": 0.645, "y": 0.5483333333333333}, {"type": "position", "time": 75253, "x": 0.66875, "y": 0.4816666666666667}, {"type": "position", "time": 75313, "x": 0.66, "y": 0.42833333333333334}, {"type": "position", "time": 75332, "x": 0.65875, "y": 0.425}, {"type": "position", "time": 75364, "x": 0.65875, "y": 0.425}, {"type": "position", "time": 75821, "x": 0.99625, "y": 0.46}, {"type": "position", "time": 75829, "x": 0.99625, "y": 0.46}, {"type": "position", "time": 75870, "x": 0.99625, "y": 0.46}, {"type": "position", "time": 75921, "x": 0.99625, "y": 0.46}, {"type": "position", "time": 75971, "x": 0.99625, "y": 0.46}, {"type": "position", "time": 76021, "x": 0.9975, "y": 0.46}, {"type": "position", "time": 76075, "x": 1.01625, "y": 0.4583333333333333}, {"type": "position", "time": 76121, "x": 1.02875, "y": 0.46}, {"type": "position", "time": 76171, "x": 1.02875, "y": 0.46}, {"type": "position", "time": 76227, "x": 1.0225, "y": 0.4583333333333333}, {"type": "position", "time": 76272, "x": 1.00875, "y": 0.4533333333333333}, {"type": "position", "time": 76321, "x": 1.00875, "y": 0.4533333333333333}, {"type": "position", "time": 76393, "x": 1.06875, "y": 0.4766666666666667}, {"type": "position", "time": 76424, "x": 1.12375, "y": 0.49}, {"type": "position", "time": 76471, "x": 1.2, "y": 0.5033333333333333}, {"type": "position", "time": 76522, "x": 1.22, "y": 0.5033333333333333}, {"type": "position", "time": 76571, "x": 1.22, "y": 0.5033333333333333}, {"type": "position", "time": 76640, "x": 1.22625, "y": 0.5033333333333333}, {"type": "position", "time": 76672, "x": 1.2275, "y": 0.5033333333333333}, {"type": "position", "time": 76725, "x": 1.2275, "y": 0.5033333333333333}, {"type": "position", "time": 76772, "x": 1.22375, "y": 0.49666666666666665}, {"type": "position", "time": 76821, "x": 1.22375, "y": 0.49666666666666665}, {"type": "position", "time": 77526, "x": 0.88, "y": 0.44333333333333336}, {"type": "position", "time": 78335, "x": 1.34875, "y": 0.475}, {"type": "position", "time": 78389, "x": 1.34875, "y": 0.475}, {"type": "position", "time": 78401, "x": 1.34875, "y": 0.475}, {"type": "position", "time": 78440, "x": 1.34875, "y": 0.475}, {"type": "position", "time": 78489, "x": 1.34875, "y": 0.475}, {"type": "position", "time": 78539, "x": 1.34875, "y": 0.475}, {"type": "position", "time": 78593, "x": 1.355, "y": 0.4766666666666667}, {"type": "position", "time": 78664, "x": 1.36625, "y": 0.4766666666666667}, {"type": "position", "time": 78692, "x": 1.37875, "y": 0.47833333333333333}, {"type": "position", "time": 78740, "x": 1.3925, "y": 0.48333333333333334}, {"type": "position", "time": 78790, "x": 1.3975, "y": 0.485}, {"type": "position", "time": 78840, "x": 1.39875, "y": 0.485}, {"type": "position", "time": 78905, "x": 1.4075, "y": 0.485}, {"type": "position", "time": 79047, "x": 1.4675, "y": 0.5}, {"type": "position", "time": 79374, "x": 1.36375, "y": 0.45666666666666667}, {"type": "position", "time": 79515, "x": 1.2025, "y": 0.455}, {"type": "position", "time": 79619, "x": 1.01875, "y": 0.42833333333333334}, {"type": "position", "time": 80518, "x": 1.4125, "y": 0.49833333333333335}, {"type": "position", "time": 80556, "x": 1.40125, "y": 0.49833333333333335}, {"type": "position", "time": 80610, "x": 1.37625, "y": 0.495}, {"type": "position", "time": 80649, "x": 1.33375, "y": 0.4866666666666667}, {"type": "position", "time": 80704, "x": 1.28, "y": 0.48}, {"type": "position", "time": 80870, "x": 1.2725, "y": 0.48}, {"type": "position", "time": 80898, "x": 1.29125, "y": 0.48}, {"type": "position", "time": 80947, "x": 1.36375, "y": 0.4866666666666667}, {"type": "position", "time": 80991, "x": 1.405, "y": 0.4866666666666667}, {"type": "position", "time": 81020, "x": 1.405, "y": 0.4866666666666667}, {"type": "position", "time": 81070, "x": 1.4, "y": 0.4866666666666667}, {"type": "position", "time": 81144, "x": 1.25375, "y": 0.49333333333333335}, {"type": "position", "time": 81215, "x": 1.135, "y": 0.5366666666666666}, {"type": "position", "time": 81253, "x": 1.04375, "y": 0.55}, {"type": "position", "time": 81378, "x": 0.8625, "y": 0.5433333333333333}, {"type": "position", "time": 81417, "x": 0.865, "y": 0.5016666666666667}, {"type": "position", "time": 81490, "x": 0.88625, "y": 0.45166666666666666}, {"type": "position", "time": 81509, "x": 0.88625, "y": 0.45166666666666666}, {"type": "position", "time": 81713, "x": 1.06625, "y": 0.4683333333333333}, {"type": "position", "time": 81790, "x": 1.1225, "y": 0.4816666666666667}, {"type": "position", "time": 81808, "x": 1.12875, "y": 0.4816666666666667}, {"type": "position", "time": 81953, "x": 1.27375, "y": 0.515}, {"type": "position", "time": 82552, "x": 0.77, "y": 0.4816666666666667}, {"type": "position", "time": 82713, "x": 0.70625, "y": 0.4666666666666667}, {"type": "position", "time": 82744, "x": 0.7025, "y": 0.4666666666666667}, {"type": "position", "time": 82763, "x": 0.7025, "y": 0.4666666666666667}, {"type": "position", "time": 82814, "x": 0.7025, "y": 0.4666666666666667}, {"type": "position", "time": 82887, "x": 0.7775, "y": 0.49833333333333335}, {"type": "position", "time": 82918, "x": 0.83375, "y": 0.51}, {"type": "position", "time": 82996, "x": 0.90125, "y": 0.5166666666666667}, {"type": "position", "time": 83020, "x": 0.92125, "y": 0.52}, {"type": "position", "time": 83068, "x": 1.01, "y": 0.55}, {"type": "position", "time": 83115, "x": 1.08875, "y": 0.5733333333333334}, {"type": "position", "time": 83168, "x": 1.1375, "y": 0.5816666666666667}, {"type": "position", "time": 83212, "x": 1.13875, "y": 0.5833333333333334}, {"type": "position", "time": 83301, "x": 1.17, "y": 0.58}, {"type": "position", "time": 83325, "x": 1.175, "y": 0.5783333333333334}, {"type": "position", "time": 83365, "x": 1.19875, "y": 0.5783333333333334}, {"type": "position", "time": 83414, "x": 1.22875, "y": 0.5866666666666667}, {"type": "position", "time": 83582, "x": 1.235, "y": 0.575}, {"type": "position", "time": 83631, "x": 1.235, "y": 0.5716666666666667}, {"type": "position", "time": 83638, "x": 1.235, "y": 0.5716666666666667}, {"type": "position", "time": 83682, "x": 1.235, "y": 0.5683333333333334}, {"type": "position", "time": 83733, "x": 1.235, "y": 0.565}, {"type": "position", "time": 83782, "x": 1.235, "y": 0.5616666666666666}, {"type": "position", "time": 83832, "x": 1.235, "y": 0.5616666666666666}, {"type": "position", "time": 83903, "x": 1.235, "y": 0.5616666666666666}, {"type": "position", "time": 83932, "x": 1.235, "y": 0.5616666666666666}, {"type": "position", "time": 83982, "x": 1.235, "y": 0.56}, {"type": "position", "time": 84038, "x": 1.23625, "y": 0.5583333333333333}, {"type": "position", "time": 84082, "x": 1.2375, "y": 0.5583333333333333}, {"type": "slider", "time": 84125, "value": 0.97}, {"type": "position", "time": 84137, "x": 1.2375, "y": 0.5583333333333333}, {"type": "position", "time": 84214, "x": 1.2375, "y": 0.5583333333333333}, {"type": "position", "time": 84232, "x": 1.2375, "y": 0.5583333333333333}, {"type": "position", "time": 84282, "x": 1.2375, "y": 0.5583333333333333}, {"type": "position", "time": 84333, "x": 1.2375, "y": 0.5583333333333333}, {"type": "position", "time": 84387, "x": 1.2375, "y": 0.5583333333333333}, {"type": "position", "time": 84460, "x": 1.23875, "y": 0.5783333333333334}, {"type": "position", "time": 84534, "x": 1.2375, "y": 0.5883333333333334}, {"type": "position", "time": 84540, "x": 1.2375, "y": 0.5883333333333334}, {"type": "position", "time": 84600, "x": 1.20125, "y": 0.6}, {"type": "position", "time": 84646, "x": 1.14625, "y": 0.6066666666666667}, {"type": "position", "time": 84695, "x": 1.07625, "y": 0.6416666666666667}, {"type": "position", "time": 84743, "x": 1.0625, "y": 0.6533333333333333}, {"type": "position", "time": 84784, "x": 1.0625, "y": 0.6533333333333333}, {"type": "position", "time": 84835, "x": 1.05375, "y": 0.65}, {"type": "position", "time": 84883, "x": 1.0275, "y": 0.635}, {"type": "position", "time": 84934, "x": 1.01, "y": 0.6333333333333333}, {"type": "position", "time": 84983, "x": 1.01, "y": 0.6333333333333333}, {"type": "position", "time": 85039, "x": 1.01, "y": 0.635}, {"type": "position", "time": 85133, "x": 0.98875, "y": 0.6683333333333333}, {"type": "position", "time": 85175, "x": 0.98125, "y": 0.67}, {"type": "position", "time": 85190, "x": 0.98, "y": 0.67}, {"type": "position", "time": 85391, "x": 0.95375, "y": 0.6666666666666666}, {"type": "position", "time": 85436, "x": 0.9525, "y": 0.6666666666666666}, {"type": "position", "time": 85443, "x": 0.9525, "y": 0.6666666666666666}, {"type": "position", "time": 85508, "x": 0.9475, "y": 0.6666666666666666}, {"type": "position", "time": 85554, "x": 0.93, "y": 0.6666666666666666}, {"type": "position", "time": 85602, "x": 0.885, "y": 0.6633333333333333}, {"type": "position", "time": 85650, "x": 0.82625, "y": 0.6666666666666666}, {"type": "position", "time": 85703, "x": 0.77125, "y": 0.6766666666666666}, {"type": "position", "time": 85759, "x": 0.73125, "y": 0.6783333333333333}, {"type": "position", "time": 85793, "x": 0.72875, "y": 0.6783333333333333}, {"type": "position", "time": 85847, "x": 0.72875, "y": 0.6783333333333333}, {"type": "position", "time": 85894, "x": 0.73125, "y": 0.68}, {"type": "position", "time": 85949, "x": 0.7375, "y": 0.6816666666666666}, {"type": "position", "time": 86016, "x": 0.7475, "y": 0.695}, {"type": "position", "time": 86049, "x": 0.7575, "y": 0.7066666666666667}, {"type": "position", "time": 86096, "x": 0.765, "y": 0.7216666666666667}, {"type": "position", "time": 86151, "x": 0.765, "y": 0.7266666666666667}, {"type": "position", "time": 86197, "x": 0.73875, "y": 0.7366666666666667}, {"type": "position", "time": 86251, "x": 0.68625, "y": 0.745}, {"type": "position", "time": 86297, "x": 0.6725, "y": 0.7466666666666667}, {"type": "position", "time": 86352, "x": 0.6625, "y": 0.7466666666666667}, {"type": "position", "time": 86391, "x": 0.66125, "y": 0.7466666666666667}, {"type": "position", "time": 86440, "x": 0.66125, "y": 0.7466666666666667}, {"type": "position", "time": 86730, "x": 0.65, "y": 0.7433333333333333}, {"type": "position", "time": 87080, "x": 0.6575, "y": 0.7333333333333333}, {"type": "position", "time": 87095, "x": 0.6575, "y": 0.7333333333333333}, {"type": "position", "time": 87137, "x": 0.6575, "y": 0.7316666666666667}, {"type": "position", "time": 87180, "x": 0.6575, "y": 0.73}, {"type": "position", "time": 87229, "x": 0.6575, "y": 0.73}, {"type": "position", "time": 87279, "x": 0.6575, "y": 0.73}, {"type": "position", "time": 87334, "x": 0.6575, "y": 0.73}, {"type": "position", "time": 87379, "x": 0.6575, "y": 0.73}, {"type": "position", "time": 87429, "x": 0.6575, "y": 0.73}, {"type": "position", "time": 87480, "x": 0.6575, "y": 0.73}, {"type": "position", "time": 87529, "x": 0.6575, "y": 0.73}, {"type": "position", "time": 87580, "x": 0.6575, "y": 0.73}, {"type": "position", "time": 87630, "x": 0.6575, "y": 0.73}, {"type": "position", "time": 87680, "x": 0.6575, "y": 0.73}, {"type": "position", "time": 87729, "x": 0.6575, "y": 0.73}, {"type": "position", "time": 87780, "x": 0.6575, "y": 0.73}, {"type": "position", "time": 87830, "x": 0.6575, "y": 0.73}, {"type": "position", "time": 87881, "x": 0.6575, "y": 0.73}, {"type": "position", "time": 87930, "x": 0.6575, "y": 0.73}, {"type": "position", "time": 87980, "x": 0.6575, "y": 0.73}, {"type": "position", "time": 88029, "x": 0.6575, "y": 0.73}, {"type": "position", "time": 88079, "x": 0.6575, "y": 0.73}, {"type": "position", "time": 88130, "x": 0.6575, "y": 0.73}, {"type": "position", "time": 88179, "x": 0.6575, "y": 0.73}, {"type": "position", "time": 88229, "x": 0.6575, "y": 0.73}, {"type": "position", "time": 88279, "x": 0.6575, "y": 0.73}, {"type": "position", "time": 88329, "x": 0.6575, "y": 0.73}, {"type": "position", "time": 88380, "x": 0.6575, "y": 0.73}, {"type": "position", "time": 88430, "x": 0.6575, "y": 0.73}, {"type": "position", "time": 88479, "x": 0.6575, "y": 0.73}, {"type": "position", "time": 88529, "x": 0.6575, "y": 0.73}, {"type": "position", "time": 88579, "x": 0.6575, "y": 0.73}, {"type": "position", "time": 88629, "x": 0.6575, "y": 0.73}, {"type": "position", "time": 88679, "x": 0.6575, "y": 0.73}, {"type": "position", "time": 88757, "x": 0.6575, "y": 0.73}, {"type": "position", "time": 88779, "x": 0.6575, "y": 0.73}, {"type": "position", "time": 88830, "x": 0.6575, "y": 0.73}, {"type": "position", "time": 88897, "x": 0.6575, "y": 0.73}, {"type": "position", "time": 88929, "x": 0.6575, "y": 0.73}, {"type": "position", "time": 88981, "x": 0.6575, "y": 0.73}, {"type": "position", "time": 89038, "x": 0.6575, "y": 0.73}, {"type": "position", "time": 89080, "x": 0.6575, "y": 0.73}, {"type": "position", "time": 89130, "x": 0.6575, "y": 0.73}, {"type": "position", "time": 89180, "x": 0.6575, "y": 0.73}, {"type": "position", "time": 89230, "x": 0.6575, "y": 0.73}, {"type": "position", "time": 89318, "x": 0.6575, "y": 0.73}, {"type": "position", "time": 89329, "x": 0.6575, "y": 0.73}, {"type": "position", "time": 89380, "x": 0.6575, "y": 0.73}, {"type": "position", "time": 89460, "x": 0.6575, "y": 0.73}, {"type": "position", "time": 89480, "x": 0.6575, "y": 0.73}, {"type": "position", "time": 89531, "x": 0.6575, "y": 0.73}, {"type": "position", "time": 89601, "x": 0.6575, "y": 0.73}, {"type": "position", "time": 89629, "x": 0.6575, "y": 0.73}, {"type": "position", "time": 89680, "x": 0.6575, "y": 0.73}, {"type": "position", "time": 89730, "x": 0.6575, "y": 0.73}, {"type": "position", "time": 89787, "x": 0.6575, "y": 0.73}, {"type": "position", "time": 89831, "x": 0.6575, "y": 0.73}, {"type": "position", "time": 89880, "x": 0.6575, "y": 0.73}, {"type": "position", "time": 89930, "x": 0.6575, "y": 0.73}, {"type": "position", "time": 89980, "x": 0.6575, "y": 0.73}, {"type": "position", "time": 90030, "x": 0.6575, "y": 0.73}, {"type": "position", "time": 90079, "x": 0.6575, "y": 0.73}, {"type": "position", "time": 90130, "x": 0.6575, "y": 0.73}, {"type": "position", "time": 90182, "x": 0.6575, "y": 0.73}, {"type": "position", "time": 90230, "x": 0.6575, "y": 0.73}, {"type": "position", "time": 90280, "x": 0.6575, "y": 0.73}, {"type": "position", "time": 90330, "x": 0.6575, "y": 0.73}, {"type": "position", "time": 90380, "x": 0.6575, "y": 0.73}, {"type": "position", "time": 90431, "x": 0.6575, "y": 0.73}, {"type": "position", "time": 90480, "x": 0.6575, "y": 0.73}, {"type": "position", "time": 90530, "x": 0.6575, "y": 0.73}, {"type": "position", "time": 90580, "x": 0.6575, "y": 0.73}, {"type": "position", "time": 90652, "x": 0.6575, "y": 0.73}, {"type": "position", "time": 90680, "x": 0.6575, "y": 0.73}, {"type": "position", "time": 90730, "x": 0.6575, "y": 0.73}, {"type": "position", "time": 90784, "x": 0.6575, "y": 0.73}, {"type": "position", "time": 90830, "x": 0.6575, "y": 0.73}, {"type": "position", "time": 90880, "x": 0.6575, "y": 0.73}, {"type": "position", "time": 90929, "x": 0.6575, "y": 0.73}, {"type": "position", "time": 90979, "x": 0.6575, "y": 0.73}, {"type": "position", "time": 91030, "x": 0.6575, "y": 0.73}, {"type": "position", "time": 91080, "x": 0.6575, "y": 0.73}, {"type": "position", "time": 91130, "x": 0.6575, "y": 0.73}, {"type": "position", "time": 91180, "x": 0.6575, "y": 0.73}, {"type": "position", "time": 91230, "x": 0.6575, "y": 0.73}, {"type": "position", "time": 91280, "x": 0.6575, "y": 0.73}, {"type": "position", "time": 91330, "x": 0.6575, "y": 0.73}, {"type": "position", "time": 91380, "x": 0.6575, "y": 0.73}, {"type": "position", "time": 91446, "x": 0.6575, "y": 0.73}, {"type": "position", "time": 91640, "x": 0.6575, "y": 0.73}, {"type": "position", "time": 91642, "x": 0.6575, "y": 0.73}, {"type": "position", "time": 91690, "x": 0.6575, "y": 0.73}, {"type": "position", "time": 91740, "x": 0.6575, "y": 0.73}, {"type": "position", "time": 91789, "x": 0.6575, "y": 0.73}, {"type": "position", "time": 91845, "x": 0.6575, "y": 0.73}, {"type": "position", "time": 91890, "x": 0.6575, "y": 0.73}, {"type": "position", "time": 91939, "x": 0.6575, "y": 0.73}, {"type": "position", "time": 91991, "x": 0.6575, "y": 0.73}, {"type": "position", "time": 92039, "x": 0.6575, "y": 0.73}, {"type": "position", "time": 92090, "x": 0.6575, "y": 0.73}, {"type": "position", "time": 92140, "x": 0.6575, "y": 0.73}, {"type": "position", "time": 92189, "x": 0.6575, "y": 0.73}, {"type": "position", "time": 92241, "x": 0.6575, "y": 0.73}, {"type": "position", "time": 92289, "x": 0.6575, "y": 0.73}, {"type": "position", "time": 92339, "x": 0.6575, "y": 0.73}, {"type": "position", "time": 92390, "x": 0.6575, "y": 0.73}, {"type": "position", "time": 92445, "x": 0.65875, "y": 0.73}, {"type": "position", "time": 92515, "x": 0.72375, "y": 0.7266666666666667}, {"type": "position", "time": 92555, "x": 0.75875, "y": 0.7183333333333334}, {"type": "position", "time": 92590, "x": 0.75875, "y": 0.7183333333333334}, {"type": "position", "time": 92751, "x": 0.93, "y": 0.6866666666666666}, {"type": "position", "time": 92906, "x": 0.9675, "y": 0.6866666666666666}, {"type": "position", "time": 93107, "x": 0.97, "y": 0.6833333333333333}, {"type": "position", "time": 93206, "x": 0.96625, "y": 0.6683333333333333}, {"type": "position", "time": 93216, "x": 0.96625, "y": 0.6666666666666666}, {"type": "position", "time": 93257, "x": 0.965, "y": 0.665}, {"type": "position", "time": 93306, "x": 0.96375, "y": 0.6616666666666666}, {"type": "position", "time": 93357, "x": 0.96375, "y": 0.66}, {"type": "position", "time": 93406, "x": 0.96375, "y": 0.66}, {"type": "position", "time": 93460, "x": 0.96375, "y": 0.66}, {"type": "position", "time": 93506, "x": 0.96375, "y": 0.66}, {"type": "position", "time": 93555, "x": 0.96375, "y": 0.66}, {"type": "position", "time": 93606, "x": 0.96375, "y": 0.66}, {"type": "position", "time": 93656, "x": 0.96375, "y": 0.66}, {"type": "position", "time": 93706, "x": 0.96375, "y": 0.66}, {"type": "position", "time": 93768, "x": 0.96375, "y": 0.6583333333333333}, {"type": "position", "time": 93807, "x": 0.96375, "y": 0.6583333333333333}, {"type": "position", "time": 93856, "x": 0.96375, "y": 0.6583333333333333}, {"type": "position", "time": 93906, "x": 0.96375, "y": 0.6583333333333333}, {"type": "click", "time": 93953, "x": 0