"","rt","story","blocknum","name","gender","trialnum","qnum","time","qtype","response","workerid","language","languageFree","age","ethnicity","education","studyQuestionGuess","comments","minutes"
"1",9491,"cooking",0,"Hannah","male",1,0,71891,"probability","0.8",1,"eng","","26","White","4","How people think about causality, maybe?","No.",11.6211166666667
"2",9491,"cooking",0,"Hannah","male",1,0,71891,"ungrammatical",NA,1,"eng","","26","White","4","How people think about causality, maybe?","No.",11.6211166666667
"3",9836,"cooking",0,"Rebecca","male",2,1,81729,"explanation","she didn't put effort into it",1,"eng","","26","White","4","How people think about causality, maybe?","No.",11.6211166666667
"4",3181,"cooking",0,"Rebecca","male",3,2,84916,"probability","0.65",1,"eng","","26","White","4","How people think about causality, maybe?","No.",11.6211166666667
"5",3181,"cooking",0,"Rebecca","male",3,2,84916,"ungrammatical",NA,1,"eng","","26","White","4","How people think about causality, maybe?","No.",11.6211166666667
"6",20315,"cooking",0,"Dylan","male",4,3,105235,"probability","0.45",1,"eng","","26","White","4","How people think about causality, maybe?","No.",11.6211166666667
"7",20315,"cooking",0,"Dylan","male",4,3,105235,"ungrammatical","FALSE",1,"eng","","26","White","4","How people think about causality, maybe?","No.",11.6211166666667
"8",16225,"cooking",0,"Angela","male",5,4,121465,"probability","0.75",1,"eng","","26","White","4","How people think about causality, maybe?","No.",11.6211166666667
"9",16225,"cooking",0,"Angela","male",5,4,121465,"ungrammatical","TRUE",1,"eng","","26","White","4","How people think about causality, maybe?","No.",11.6211166666667
"10",6866,"cooking",0,"Savannah","male",6,5,128334,"probability","0.35",1,"eng","","26","White","4","How people think about causality, maybe?","No.",11.6211166666667
"11",6866,"cooking",0,"Savannah","male",6,5,128334,"ungrammatical","FALSE",1,"eng","","26","White","4","How people think about causality, maybe?","No.",11.6211166666667
"12",10681,"guitar",1,"Will","male",8,0,139018,"probability","0.83",1,"eng","","26","White","4","How people think about causality, maybe?","No.",11.6211166666667
"13",10681,"guitar",1,"Will","male",8,0,139018,"ungrammatical",NA,1,"eng","","26","White","4","How people think about causality, maybe?","No.",11.6211166666667
"14",9901,"guitar",1,"Tiffany","male",9,1,148921,"explanation","she liked covering other peoples' songs",1,"eng","","26","White","4","How people think about causality, maybe?","No.",11.6211166666667
"15",2695,"guitar",1,"Tiffany","male",10,2,151622,"probability","0.68",1,"eng","","26","White","4","How people think about causality, maybe?","No.",11.6211166666667
"16",2695,"guitar",1,"Tiffany","male",10,2,151622,"ungrammatical",NA,1,"eng","","26","White","4","How people think about causality, maybe?","No.",11.6211166666667
"17",130743,"guitar",1,"Olivia","male",11,3,282368,"probability","0.8",1,"eng","","26","White","4","How people think about causality, maybe?","No.",11.6211166666667
"18",130743,"guitar",1,"Olivia","male",11,3,282368,"ungrammatical","FALSE",1,"eng","","26","White","4","How people think about causality, maybe?","No.",11.6211166666667
"19",5961,"guitar",1,"Erica","male",12,4,288332,"probability","0.8",1,"eng","","26","White","4","How people think about causality, maybe?","No.",11.6211166666667
"20",5961,"guitar",1,"Erica","male",12,4,288332,"ungrammatical","FALSE",1,"eng","","26","White","4","How people think about causality, maybe?","No.",11.6211166666667
"21",3791,"guitar",1,"Lindsey","male",13,5,292127,"probability","0.82",1,"eng","","26","White","4","How people think about causality, maybe?","No.",11.6211166666667
"22",3791,"guitar",1,"Lindsey","male",13,5,292127,"ungrammatical","FALSE",1,"eng","","26","White","4","How people think about causality, maybe?","No.",11.6211166666667
"23",8057,"Japan",2,"Erin","male",15,0,300188,"probability","0.84",1,"eng","","26","White","4","How people think about causality, maybe?","No.",11.6211166666667
"24",8057,"Japan",2,"Erin","male",15,0,300188,"ungrammatical",NA,1,"eng","","26","White","4","How people think about causality, maybe?","No.",11.6211166666667
"25",11892,"Japan",2,"Emily","male",16,1,312081,"explanation","she slept the whole trip",1,"eng","","26","White","4","How people think about causality, maybe?","No.",11.6211166666667
"26",6149,"Japan",2,"Emily","male",17,2,318240,"probability","0.58",1,"eng","","26","White","4","How people think about causality, maybe?","No.",11.6211166666667
"27",6149,"Japan",2,"Emily","male",17,2,318240,"ungrammatical",NA,1,"eng","","26","White","4","How people think about causality, maybe?","No.",11.6211166666667
"28",4557,"Japan",2,"Mark","male",18,3,322799,"probability","0.76",1,"eng","","26","White","4","How people think about causality, maybe?","No.",11.6211166666667
"29",4557,"Japan",2,"Mark","male",18,3,322799,"ungrammatical","FALSE",1,"eng","","26","White","4","How people think about causality, maybe?","No.",11.6211166666667
"30",4057,"Japan",2,"Devin","male",19,4,326858,"probability","0.88",1,"eng","","26","White","4","How people think about causality, maybe?","No.",11.6211166666667
"31",4057,"Japan",2,"Devin","male",19,4,326858,"ungrammatical","FALSE",1,"eng","","26","White","4","How people think about causality, maybe?","No.",11.6211166666667
"32",3688,"Japan",2,"Nicholas","male",20,5,330549,"probability","0.58",1,"eng","","26","White","4","How people think about causality, maybe?","No.",11.6211166666667
"33",3688,"Japan",2,"Nicholas","male",20,5,330549,"ungrammatical","FALSE",1,"eng","","26","White","4","How people think about causality, maybe?","No.",11.6211166666667
"34",5354,"painting",3,"Matthew","male",22,0,335907,"probability","0.63",1,"eng","","26","White","4","How people think about causality, maybe?","No.",11.6211166666667
"35",5354,"painting",3,"Matthew","male",22,0,335907,"ungrammatical",NA,1,"eng","","26","White","4","How people think about causality, maybe?","No.",11.6211166666667
"36",9630,"painting",3,"Logan","male",23,1,345539,"explanation","he did not pay attention in class",1,"eng","","26","White","4","How people think about causality, maybe?","No.",11.6211166666667
"37",6210,"painting",3,"Logan","male",24,2,351751,"probability","0.64",1,"eng","","26","White","4","How people think about causality, maybe?","No.",11.6211166666667
"38",6210,"painting",3,"Logan","male",24,2,351751,"ungrammatical",NA,1,"eng","","26","White","4","How people think about causality, maybe?","No.",11.6211166666667
"39",4040,"painting",3,"Alyssa","male",25,3,355795,"probability","0.65",1,"eng","","26","White","4","How people think about causality, maybe?","No.",11.6211166666667
"40",4040,"painting",3,"Alyssa","male",25,3,355795,"ungrammatical","FALSE",1,"eng","","26","White","4","How people think about causality, maybe?","No.",11.6211166666667
"41",9189,"painting",3,"Christian","male",26,4,364987,"probability","0.68",1,"eng","","26","White","4","How people think about causality, maybe?","No.",11.6211166666667
"42",9189,"painting",3,"Christian","male",26,4,364987,"ungrammatical","TRUE",1,"eng","","26","White","4","How people think about causality, maybe?","No.",11.6211166666667
"43",4718,"painting",3,"Juan","male",27,5,369707,"probability","0.75",1,"eng","","26","White","4","How people think about causality, maybe?","No.",11.6211166666667
"44",4718,"painting",3,"Juan","male",27,5,369707,"ungrammatical","FALSE",1,"eng","","26","White","4","How people think about causality, maybe?","No.",11.6211166666667
"45",6968,"beach",4,"Victoria","male",29,0,376678,"probability","0.74",1,"eng","","26","White","4","How people think about causality, maybe?","No.",11.6211166666667
"46",6968,"beach",4,"Victoria","male",29,0,376678,"ungrammatical",NA,1,"eng","","26","White","4","How people think about causality, maybe?","No.",11.6211166666667
"47",6986,"beach",4,"Vanessa","male",30,1,383665,"explanation","she put on sunblock",1,"eng","","26","White","4","How people think about causality, maybe?","No.",11.6211166666667
"48",72049,"beach",4,"Vanessa","male",31,2,455717,"probability","0.7",1,"eng","","26","White","4","How people think about causality, maybe?","No.",11.6211166666667
"49",72049,"beach",4,"Vanessa","male",31,2,455717,"ungrammatical",NA,1,"eng","","26","White","4","How people think about causality, maybe?","No.",11.6211166666667
"50",5054,"beach",4,"Jennifer","male",32,3,460776,"probability","0.71",1,"eng","","26","White","4","How people think about causality, maybe?","No.",11.6211166666667
"51",5054,"beach",4,"Jennifer","male",32,3,460776,"ungrammatical","FALSE",1,"eng","","26","White","4","How people think about causality, maybe?","No.",11.6211166666667
"52",3587,"beach",4,"Gabriel","male",33,4,464365,"probability","0.77",1,"eng","","26","White","4","How people think about causality, maybe?","No.",11.6211166666667
"53",3587,"beach",4,"Gabriel","male",33,4,464365,"ungrammatical","FALSE",1,"eng","","26","White","4","How people think about causality, maybe?","No.",11.6211166666667
"54",2673,"beach",4,"Caleb","male",34,5,467041,"probability","0.76",1,"eng","","26","White","4","How people think about causality, maybe?","No.",11.6211166666667
"55",2673,"beach",4,"Caleb","male",34,5,467041,"ungrammatical","FALSE",1,"eng","","26","White","4","How people think about causality, maybe?","No.",11.6211166666667
"56",6593,"insomnia",5,"Kim","male",36,0,473637,"probability","0.66",1,"eng","","26","White","4","How people think about causality, maybe?","No.",11.6211166666667
"57",6593,"insomnia",5,"Kim","male",36,0,473637,"ungrammatical",NA,1,"eng","","26","White","4","How people think about causality, maybe?","No.",11.6211166666667
"58",24801,"insomnia",5,"David","male",37,1,498439,"explanation","he was focused on a game (which he was worried about)",1,"eng","","26","White","4","How people think about causality, maybe?","No.",11.6211166666667
"59",3932,"insomnia",5,"David","male",38,2,502373,"probability","0.27",1,"eng","","26","White","4","How people think about causality, maybe?","No.",11.6211166666667
"60",3932,"insomnia",5,"David","male",38,2,502373,"ungrammatical",NA,1,"eng","","26","White","4","How people think about causality, maybe?","No.",11.6211166666667
"61",6579,"insomnia",5,"Alexander","male",39,3,508955,"probability","0.59",1,"eng","","26","White","4","How people think about causality, maybe?","No.",11.6211166666667
"62",6579,"insomnia",5,"Alexander","male",39,3,508955,"ungrammatical","FALSE",1,"eng","","26","White","4","How people think about causality, maybe?","No.",11.6211166666667
"63",6750,"insomnia",5,"Ian","male",40,4,515708,"probability","0.5",1,"eng","","26","White","4","How people think about causality, maybe?","No.",11.6211166666667
"64",6750,"insomnia",5,"Ian","male",40,4,515708,"ungrammatical","FALSE",1,"eng","","26","White","4","How people think about causality, maybe?","No.",11.6211166666667
"65",3514,"insomnia",5,"Jeremy","male",41,5,519224,"probability","0.32",1,"eng","","26","White","4","How people think about causality, maybe?","No.",11.6211166666667
"66",3514,"insomnia",5,"Jeremy","male",41,5,519224,"ungrammatical","FALSE",1,"eng","","26","White","4","How people think about causality, maybe?","No.",11.6211166666667
"67",4173,"coffee",6,"Shannon","male",43,0,523400,"probability","0.63",1,"eng","","26","White","4","How people think about causality, maybe?","No.",11.6211166666667
"68",4173,"coffee",6,"Shannon","male",43,0,523400,"ungrammatical",NA,1,"eng","","26","White","4","How people think about causality, maybe?","No.",11.6211166666667
"69",8853,"coffee",6,"Jeff","male",44,1,532255,"explanation","the coffee was decaf",1,"eng","","26","White","4","How people think about causality, maybe?","No.",11.6211166666667
"70",3173,"coffee",6,"Jeff","male",45,2,535431,"probability","0.39",1,"eng","","26","White","4","How people think about causality, maybe?","No.",11.6211166666667
"71",3173,"coffee",6,"Jeff","male",45,2,535431,"ungrammatical",NA,1,"eng","","26","White","4","How people think about causality, maybe?","No.",11.6211166666667
"72",5373,"coffee",6,"Madison","male",46,3,540807,"probability","0.49",1,"eng","","26","White","4","How people think about causality, maybe?","No.",11.6211166666667
"73",5373,"coffee",6,"Madison","male",46,3,540807,"ungrammatical","FALSE",1,"eng","","26","White","4","How people think about causality, maybe?","No.",11.6211166666667
"74",6172,"coffee",6,"Trevor","male",47,4,546982,"probability","0.63",1,"eng","","26","White","4","How people think about causality, maybe?","No.",11.6211166666667
"75",6172,"coffee",6,"Trevor","male",47,4,546982,"ungrammatical","TRUE",1,"eng","","26","White","4","How people think about causality, maybe?","No.",11.6211166666667
"76",3834,"coffee",6,"Timothy","male",48,5,550818,"probability","0.38",1,"eng","","26","White","4","How people think about causality, maybe?","No.",11.6211166666667
"77",3834,"coffee",6,"Timothy","male",48,5,550818,"ungrammatical","FALSE",1,"eng","","26","White","4","How people think about causality, maybe?","No.",11.6211166666667
"78",3668,"fitness",7,"Thomas","male",50,0,554491,"probability","0.81",1,"eng","","26","White","4","How people think about causality, maybe?","No.",11.6211166666667
"79",3668,"fitness",7,"Thomas","male",50,0,554491,"ungrammatical",NA,1,"eng","","26","White","4","How people think about causality, maybe?","No.",11.6211166666667
"80",49975,"fitness",7,"Michelle","male",51,1,604468,"explanation","she only jogged for five minutes at a time",1,"eng","","26","White","4","How people think about causality, maybe?","No.",11.6211166666667
"81",8472,"fitness",7,"Michelle","male",52,2,612943,"probability","0.45",1,"eng","","26","White","4","How people think about causality, maybe?","No.",11.6211166666667
"82",8472,"fitness",7,"Michelle","male",52,2,612943,"ungrammatical",NA,1,"eng","","26","White","4","How people think about causality, maybe?","No.",11.6211166666667
"83",5420,"fitness",7,"Stephanie","male",53,3,618366,"probability","0.78",1,"eng","","26","White","4","How people think about causality, maybe?","No.",11.6211166666667
"84",5420,"fitness",7,"Stephanie","male",53,3,618366,"ungrammatical","FALSE",1,"eng","","26","White","4","How people think about causality, maybe?","No.",11.6211166666667
"85",5109,"fitness",7,"Nathan","male",54,4,623477,"probability","0.84",1,"eng","","26","White","4","How people think about causality, maybe?","No.",11.6211166666667
"86",5109,"fitness",7,"Nathan","male",54,4,623477,"ungrammatical","FALSE",1,"eng","","26","White","4","How people think about causality, maybe?","No.",11.6211166666667
"87",3198,"fitness",7,"Dustin","male",55,5,626677,"probability","0.45",1,"eng","","26","White","4","How people think about causality, maybe?","No.",11.6211166666667
"88",3198,"fitness",7,"Dustin","male",55,5,626677,"ungrammatical","FALSE",1,"eng","","26","White","4","How people think about causality, maybe?","No.",11.6211166666667
"89",15961,"reading",8,"Anthony","male",57,0,642642,"probability","0.63",1,"eng","","26","White","4","How people think about causality, maybe?","No.",11.6211166666667
"90",15961,"reading",8,"Anthony","male",57,0,642642,"ungrammatical",NA,1,"eng","","26","White","4","How people think about causality, maybe?","No.",11.6211166666667
"91",8484,"reading",8,"Allison","male",58,1,651128,"explanation","she read a very simple book",1,"eng","","26","White","4","How people think about causality, maybe?","No.",11.6211166666667
"92",3858,"reading",8,"Allison","male",59,2,654989,"probability","0.44",1,"eng","","26","White","4","How people think about causality, maybe?","No.",11.6211166666667
"93",3858,"reading",8,"Allison","male",59,2,654989,"ungrammatical",NA,1,"eng","","26","White","4","How people think about causality, maybe?","No.",11.6211166666667
"94",13555,"reading",8,"Amanda","male",60,3,668547,"probability","0.61",1,"eng","","26","White","4","How people think about causality, maybe?","No.",11.6211166666667
"95",13555,"reading",8,"Amanda","male",60,3,668547,"ungrammatical","FALSE",1,"eng","","26","White","4","How people think about causality, maybe?","No.",11.6211166666667
"96",7138,"reading",8,"Ryan","male",61,4,675691,"probability","0.78",1,"eng","","26","White","4","How people think about causality, maybe?","No.",11.6211166666667
"97",7138,"reading",8,"Ryan","male",61,4,675691,"ungrammatical","FALSE",1,"eng","","26","White","4","How people think about causality, maybe?","No.",11.6211166666667
"98",2960,"reading",8,"Zach","male",62,5,678654,"probability","0.5",1,"eng","","26","White","4","How people think about causality, maybe?","No.",11.6211166666667
"99",2960,"reading",8,"Zach","male",62,5,678654,"ungrammatical","FALSE",1,"eng","","26","White","4","How people think about causality, maybe?","No.",11.6211166666667
"100",5729,"reading",0,"Nicholas","male",1,0,6990,"probability","0.5",2,"eng","","24","White","2","Perception","No",4.36276666666667
"101",5729,"reading",0,"Nicholas","male",1,0,6990,"ungrammatical",NA,2,"eng","","24","White","2","Perception","No",4.36276666666667
"102",7945,"reading",0,"Adam","male",2,1,14939,"explanation","He is smart",2,"eng","","24","White","2","Perception","No",4.36276666666667
"103",3660,"reading",0,"Adam","male",3,2,18608,"probability","0.5",2,"eng","","24","White","2","Perception","No",4.36276666666667
"104",3660,"reading",0,"Adam","male",3,2,18608,"ungrammatical",NA,2,"eng","","24","White","2","Perception","No",4.36276666666667
"105",8710,"reading",0,"Melissa","male",4,3,27325,"probability","0.43",2,"eng","","24","White","2","Perception","No",4.36276666666667
"106",8710,"reading",0,"Melissa","male",4,3,27325,"ungrammatical","FALSE",2,"eng","","24","White","2","Perception","No",4.36276666666667
"107",1756,"reading",0,"Ethan","male",5,4,29086,"probability","0.52",2,"eng","","24","White","2","Perception","No",4.36276666666667
"108",1756,"reading",0,"Ethan","male",5,4,29086,"ungrammatical","FALSE",2,"eng","","24","White","2","Perception","No",4.36276666666667
"109",1632,"reading",0,"Jeff","male",6,5,30722,"probability","0.47",2,"eng","","24","White","2","Perception","No",4.36276666666667
"110",1632,"reading",0,"Jeff","male",6,5,30722,"ungrammatical","FALSE",2,"eng","","24","White","2","Perception","No",4.36276666666667
"111",5665,"Japan",1,"Brooke","male",8,0,36394,"probability","0.73",2,"eng","","24","White","2","Perception","No",4.36276666666667
"112",5665,"Japan",1,"Brooke","male",8,0,36394,"ungrammatical",NA,2,"eng","","24","White","2","Perception","No",4.36276666666667
"113",8534,"Japan",1,"Matthew","male",9,1,44930,"explanation","He was from japan",2,"eng","","24","White","2","Perception","No",4.36276666666667
"114",4787,"Japan",1,"Matthew","male",10,2,49721,"probability","0.98",2,"eng","","24","White","2","Perception","No",4.36276666666667
"115",4787,"Japan",1,"Matthew","male",10,2,49721,"ungrammatical",NA,2,"eng","","24","White","2","Perception","No",4.36276666666667
"116",2081,"Japan",1,"Luis","male",11,3,51806,"probability","0.62",2,"eng","","24","White","2","Perception","No",4.36276666666667
"117",2081,"Japan",1,"Luis","male",11,3,51806,"ungrammatical","FALSE",2,"eng","","24","White","2","Perception","No",4.36276666666667
"118",1792,"Japan",1,"Cameron","male",12,4,53602,"probability","0.5",2,"eng","","24","White","2","Perception","No",4.36276666666667
"119",1792,"Japan",1,"Cameron","male",12,4,53602,"ungrammatical","FALSE",2,"eng","","24","White","2","Perception","No",4.36276666666667
"120",2157,"Japan",1,"Jacqueline","male",13,5,55762,"probability","0.65",2,"eng","","24","White","2","Perception","No",4.36276666666667
"121",2157,"Japan",1,"Jacqueline","male",13,5,55762,"ungrammatical","FALSE",2,"eng","","24","White","2","Perception","No",4.36276666666667
"122",8393,"fitness",2,"Kristen","male",15,0,64161,"probability","0.98",2,"eng","","24","White","2","Perception","No",4.36276666666667
"123",8393,"fitness",2,"Kristen","male",15,0,64161,"ungrammatical",NA,2,"eng","","24","White","2","Perception","No",4.36276666666667
"124",7036,"fitness",2,"Timothy","male",16,1,71200,"explanation","He ate too much",2,"eng","","24","White","2","Perception","No",4.36276666666667
"125",4301,"fitness",2,"Timothy","male",17,2,75504,"probability","0.86",2,"eng","","24","White","2","Perception","No",4.36276666666667
"126",4301,"fitness",2,"Timothy","male",17,2,75504,"ungrammatical",NA,2,"eng","","24","White","2","Perception","No",4.36276666666667
"127",2000,"fitness",2,"Joseph","male",18,3,77508,"probability","0.63",2,"eng","","24","White","2","Perception","No",4.36276666666667
"128",2000,"fitness",2,"Joseph","male",18,3,77508,"ungrammatical","FALSE",2,"eng","","24","White","2","Perception","No",4.36276666666667
"129",1548,"fitness",2,"Samantha","male",19,4,79060,"probability","0.55",2,"eng","","24","White","2","Perception","No",4.36276666666667
"130",1548,"fitness",2,"Samantha","male",19,4,79060,"ungrammatical","FALSE",2,"eng","","24","White","2","Perception","No",4.36276666666667
"131",1023,"fitness",2,"Angela","male",20,5,80089,"probability","0.49",2,"eng","","24","White","2","Perception","No",4.36276666666667
"132",1023,"fitness",2,"Angela","male",20,5,80089,"ungrammatical","FALSE",2,"eng","","24","White","2","Perception","No",4.36276666666667
"133",37074,"insomnia",3,"Lauren","male",22,0,117168,"probability","0.54",2,"eng","","24","White","2","Perception","No",4.36276666666667
"134",37074,"insomnia",3,"Lauren","male",22,0,117168,"ungrammatical",NA,2,"eng","","24","White","2","Perception","No",4.36276666666667
"135",13515,"insomnia",3,"Nathan","male",23,1,130686,"explanation","He had narcolepsy",2,"eng","","24","White","2","Perception","No",4.36276666666667
"136",2635,"insomnia",3,"Nathan","male",24,2,133324,"probability","0.47",2,"eng","","24","White","2","Perception","No",4.36276666666667
"137",2635,"insomnia",3,"Nathan","male",24,2,133324,"ungrammatical",NA,2,"eng","","24","White","2","Perception","No",4.36276666666667
"138",4340,"insomnia",3,"Noah","male",25,3,137668,"probability","0.53",2,"eng","","24","White","2","Perception","No",4.36276666666667
"139",4340,"insomnia",3,"Noah","male",25,3,137668,"ungrammatical","FALSE",2,"eng","","24","White","2","Perception","No",4.36276666666667
"140",1503,"insomnia",3,"Paul","male",26,4,139175,"probability","0.34",2,"eng","","24","White","2","Perception","No",4.36276666666667
"141",1503,"insomnia",3,"Paul","male",26,4,139175,"ungrammatical","FALSE",2,"eng","","24","White","2","Perception","No",4.36276666666667
"142",1870,"insomnia",3,"Jennifer","male",27,5,141049,"probability","0.54",2,"eng","","24","White","2","Perception","No",4.36276666666667
"143",1870,"insomnia",3,"Jennifer","male",27,5,141049,"ungrammatical","FALSE",2,"eng","","24","White","2","Perception","No",4.36276666666667
"144",1596,"guitar",4,"Kathryn","male",29,0,142649,"probability","0.53",2,"eng","","24","White","2","Perception","No",4.36276666666667
"145",1596,"guitar",4,"Kathryn","male",29,0,142649,"ungrammatical",NA,2,"eng","","24","White","2","Perception","No",4.36276666666667
"146",5808,"guitar",4,"Logan","male",30,1,148458,"explanation","He didnt want to ",2,"eng","","24","White","2","Perception","No",4.36276666666667
"147",2678,"guitar",4,"Logan","male",31,2,151140,"probability","0.73",2,"eng","","24","White","2","Perception","No",4.36276666666667
"148",2678,"guitar",4,"Logan","male",31,2,151140,"ungrammatical",NA,2,"eng","","24","White","2","Perception","No",4.36276666666667
"149",1529,"guitar",4,"Madison","male",32,3,152676,"probability","0.56",2,"eng","","24","White","2","Perception","No",4.36276666666667
"150",1529,"guitar",4,"Madison","male",32,3,152676,"ungrammatical","FALSE",2,"eng","","24","White","2","Perception","No",4.36276666666667
"151",1600,"guitar",4,"Ashley","male",33,4,154281,"probability","0.54",2,"eng","","24","White","2","Perception","No",4.36276666666667
"152",1600,"guitar",4,"Ashley","male",33,4,154281,"ungrammatical","FALSE",2,"eng","","24","White","2","Perception","No",4.36276666666667
"153",1260,"guitar",4,"Samuel","male",34,5,155544,"probability","0.68",2,"eng","","24","White","2","Perception","No",4.36276666666667
"154",1260,"guitar",4,"Samuel","male",34,5,155544,"ungrammatical","FALSE",2,"eng","","24","White","2","Perception","No",4.36276666666667
"155",9268,"painting",5,"Corey","male",36,0,164816,"probability","0.82",2,"eng","","24","White","2","Perception","No",4.36276666666667
"156",9268,"painting",5,"Corey","male",36,0,164816,"ungrammatical",NA,2,"eng","","24","White","2","Perception","No",4.36276666666667
"157",5478,"painting",5,"Sean","male",37,1,170296,"explanation","He was just no good",2,"eng","","24","White","2","Perception","No",4.36276666666667
"158",2405,"painting",5,"Sean","male",38,2,172704,"probability","0.57",2,"eng","","24","White","2","Perception","No",4.36276666666667
"159",2405,"painting",5,"Sean","male",38,2,172704,"ungrammatical",NA,2,"eng","","24","White","2","Perception","No",4.36276666666667
"160",1903,"painting",5,"Austin","male",39,3,174612,"probability","0.65",2,"eng","","24","White","2","Perception","No",4.36276666666667
"161",1903,"painting",5,"Austin","male",39,3,174612,"ungrammatical","FALSE",2,"eng","","24","White","2","Perception","No",4.36276666666667
"162",1524,"painting",5,"Brian","male",40,4,176140,"probability","0.56",2,"eng","","24","White","2","Perception","No",4.36276666666667
"163",1524,"painting",5,"Brian","male",40,4,176140,"ungrammatical","FALSE",2,"eng","","24","White","2","Perception","No",4.36276666666667
"164",2272,"painting",5,"Travis","male",41,5,178416,"probability","0.52",2,"eng","","24","White","2","Perception","No",4.36276666666667
"165",2272,"painting",5,"Travis","male",41,5,178416,"ungrammatical","FALSE",2,"eng","","24","White","2","Perception","No",4.36276666666667
"166",8995,"coffee",6,"Destiny","male",43,0,187416,"probability","0.68",2,"eng","","24","White","2","Perception","No",4.36276666666667
"167",8995,"coffee",6,"Destiny","male",43,0,187416,"ungrammatical",NA,2,"eng","","24","White","2","Perception","No",4.36276666666667
"168",10472,"coffee",6,"Trevor","male",44,1,197890,"explanation","used to caffine",2,"eng","","24","White","2","Perception","No",4.36276666666667
"169",2183,"coffee",6,"Trevor","male",45,2,200076,"probability","0.58",2,"eng","","24","White","2","Perception","No",4.36276666666667
"170",2183,"coffee",6,"Trevor","male",45,2,200076,"ungrammatical",NA,2,"eng","","24","White","2","Perception","No",4.36276666666667
"171",2807,"coffee",6,"Patrick","male",46,3,202888,"probability","0.66",2,"eng","","24","White","2","Perception","No",4.36276666666667
"172",2807,"coffee",6,"Patrick","male",46,3,202888,"ungrammatical","FALSE",2,"eng","","24","White","2","Perception","No",4.36276666666667
"173",1456,"coffee",6,"Nicole","male",47,4,204347,"probability","0.49",2,"eng","","24","White","2","Perception","No",4.36276666666667
"174",1456,"coffee",6,"Nicole","male",47,4,204347,"ungrammatical","FALSE",2,"eng","","24","White","2","Perception","No",4.36276666666667
"175",1374,"coffee",6,"Christina","male",48,5,205724,"probability","0.6",2,"eng","","24","White","2","Perception","No",4.36276666666667
"176",1374,"coffee",6,"Christina","male",48,5,205724,"ungrammatical","FALSE",2,"eng","","24","White","2","Perception","No",4.36276666666667
"177",2542,"cooking",7,"Jared","male",50,0,208272,"probability","0.53",2,"eng","","24","White","2","Perception","No",4.36276666666667
"178",2542,"cooking",7,"Jared","male",50,0,208272,"ungrammatical",NA,2,"eng","","24","White","2","Perception","No",4.36276666666667
"179",6539,"cooking",7,"Dustin","male",51,1,214813,"explanation","He didnt work hard",2,"eng","","24","White","2","Perception","No",4.36276666666667
"180",3299,"cooking",7,"Dustin","male",52,2,218116,"probability","0.57",2,"eng","","24","White","2","Perception","No",4.36276666666667
"181",3299,"cooking",7,"Dustin","male",52,2,218116,"ungrammatical",NA,2,"eng","","24","White","2","Perception","No",4.36276666666667
"182",1587,"cooking",7,"Alexis","male",53,3,219708,"probability","0.51",2,"eng","","24","White","2","Perception","No",4.36276666666667
"183",1587,"cooking",7,"Alexis","male",53,3,219708,"ungrammatical","FALSE",2,"eng","","24","White","2","Perception","No",4.36276666666667
"184",1100,"cooking",7,"Kaitlyn","male",54,4,220813,"probability","0.58",2,"eng","","24","White","2","Perception","No",4.36276666666667
"185",1100,"cooking",7,"Kaitlyn","male",54,4,220813,"ungrammatical","FALSE",2,"eng","","24","White","2","Perception","No",4.36276666666667
"186",2032,"cooking",7,"Maria","male",55,5,222848,"probability","0.67",2,"eng","","24","White","2","Perception","No",4.36276666666667
"187",2032,"cooking",7,"Maria","male",55,5,222848,"ungrammatical","FALSE",2,"eng","","24","White","2","Perception","No",4.36276666666667
"188",1583,"beach",8,"Mary","male",57,0,224436,"probability","0.51",2,"eng","","24","White","2","Perception","No",4.36276666666667
"189",1583,"beach",8,"Mary","male",57,0,224436,"ungrammatical",NA,2,"eng","","24","White","2","Perception","No",4.36276666666667
"190",10590,"beach",8,"Carlos","male",58,1,235028,"explanation","There were no wave",2,"eng","","24","White","2","Perception","No",4.36276666666667
"191",2599,"beach",8,"Carlos","male",59,2,237633,"probability","0.89",2,"eng","","24","White","2","Perception","No",4.36276666666667
"192",2599,"beach",8,"Carlos","male",59,2,237633,"ungrammatical",NA,2,"eng","","24","White","2","Perception","No",4.36276666666667
"193",2347,"beach",8,"Haley","male",60,3,239984,"probability","0.59",2,"eng","","24","White","2","Perception","No",4.36276666666667
"194",2347,"beach",8,"Haley","male",60,3,239984,"ungrammatical","FALSE",2,"eng","","24","White","2","Perception","No",4.36276666666667
"195",1408,"beach",8,"Jeremy","male",61,4,241396,"probability","0.52",2,"eng","","24","White","2","Perception","No",4.36276666666667
"196",1408,"beach",8,"Jeremy","male",61,4,241396,"ungrammatical","FALSE",2,"eng","","24","White","2","Perception","No",4.36276666666667
"197",1085,"beach",8,"Amy","male",62,5,242484,"probability","0.43",2,"eng","","24","White","2","Perception","No",4.36276666666667
"198",1085,"beach",8,"Amy","male",62,5,242484,"ungrammatical","FALSE",2,"eng","","24","White","2","Perception","No",4.36276666666667
"199",17611,"beach",0,"Jacqueline","male",1,0,378382,"probability","1",3,"eng","","26","Asian","4","I don't know","none",12.64165
"200",17611,"beach",0,"Jacqueline","male",1,0,378382,"ungrammatical",NA,3,"eng","","26","Asian","4","I don't know","none",12.64165
"201",28781,"beach",0,"Nathan","male",2,1,407165,"explanation","he wore clothing that covered his body",3,"eng","","26","Asian","4","I don't know","none",12.64165
"202",4658,"beach",0,"Nathan","male",3,2,411829,"probability","0.97",3,"eng","","26","Asian","4","I don't know","none",12.64165
"203",4658,"beach",0,"Nathan","male",3,2,411829,"ungrammatical",NA,3,"eng","","26","Asian","4","I don't know","none",12.64165
"204",11581,"beach",0,"Emily","male",4,3,423413,"probability","0.99",3,"eng","","26","Asian","4","I don't know","none",12.64165
"205",11581,"beach",0,"Emily","male",4,3,423413,"ungrammatical","FALSE",3,"eng","","26","Asian","4","I don't know","none",12.64165
"206",9262,"beach",0,"Paige","male",5,4,432677,"probability","0.99",3,"eng","","26","Asian","4","I don't know","none",12.64165
"207",9262,"beach",0,"Paige","male",5,4,432677,"ungrammatical","FALSE",3,"eng","","26","Asian","4","I don't know","none",12.64165
"208",2854,"beach",0,"Corey","male",6,5,435533,"probability","1",3,"eng","","26","Asian","4","I don't know","none",12.64165
"209",2854,"beach",0,"Corey","male",6,5,435533,"ungrammatical","FALSE",3,"eng","","26","Asian","4","I don't know","none",12.64165
"210",6005,"painting",1,"Mary","male",8,0,441541,"probability","1",3,"eng","","26","Asian","4","I don't know","none",12.64165
"211",6005,"painting",1,"Mary","male",8,0,441541,"ungrammatical",NA,3,"eng","","26","Asian","4","I don't know","none",12.64165
"212",15112,"painting",1,"Logan","male",9,1,456654,"explanation","He didn't wear a shirt",3,"eng","","26","Asian","4","I don't know","none",12.64165
"213",2415,"painting",1,"Logan","male",10,2,459072,"probability","0.97",3,"eng","","26","Asian","4","I don't know","none",12.64165
"214",2415,"painting",1,"Logan","male",10,2,459072,"ungrammatical",NA,3,"eng","","26","Asian","4","I don't know","none",12.64165
"215",1604,"painting",1,"Alexis","male",11,3,460678,"probability","0.96",3,"eng","","26","Asian","4","I don't know","none",12.64165
"216",1604,"painting",1,"Alexis","male",11,3,460678,"ungrammatical","FALSE",3,"eng","","26","Asian","4","I don't know","none",12.64165
"217",1334,"painting",1,"Emma","male",12,4,462014,"probability","0.97",3,"eng","","26","Asian","4","I don't know","none",12.64165
"218",1334,"painting",1,"Emma","male",12,4,462014,"ungrammatical","FALSE",3,"eng","","26","Asian","4","I don't know","none",12.64165
"219",1477,"painting",1,"Michelle","male",13,5,463494,"probability","0.96",3,"eng","","26","Asian","4","I don't know","none",12.64165
"220",1477,"painting",1,"Michelle","male",13,5,463494,"ungrammatical","FALSE",3,"eng","","26","Asian","4","I don't know","none",12.64165
"221",4942,"cooking",2,"Greg","male",15,0,468438,"probability","0.97",3,"eng","","26","Asian","4","I don't know","none",12.64165
"222",4942,"cooking",2,"Greg","male",15,0,468438,"ungrammatical",NA,3,"eng","","26","Asian","4","I don't know","none",12.64165
"223",14215,"cooking",2,"Hannah","male",16,1,482654,"explanation","Hannah didn't talk to others",3,"eng","","26","Asian","4","I don't know","none",12.64165
"224",2606,"cooking",2,"Hannah","male",17,2,485262,"probability","0.98",3,"eng","","26","Asian","4","I don't know","none",12.64165
"225",2606,"cooking",2,"Hannah","male",17,2,485262,"ungrammatical",NA,3,"eng","","26","Asian","4","I don't know","none",12.64165
"226",16910,"cooking",2,"Daniel","male",18,3,502174,"probability","0.96",3,"eng","","26","Asian","4","I don't know","none",12.64165
"227",16910,"cooking",2,"Daniel","male",18,3,502174,"ungrammatical","FALSE",3,"eng","","26","Asian","4","I don't know","none",12.64165
"228",3797,"cooking",2,"Rachel","male",19,4,505974,"probability","0.96",3,"eng","","26","Asian","4","I don't know","none",12.64165
"229",3797,"cooking",2,"Rachel","male",19,4,505974,"ungrammatical","FALSE",3,"eng","","26","Asian","4","I don't know","none",12.64165
"230",1976,"cooking",2,"Victoria","male",20,5,507952,"probability","0.97",3,"eng","","26","Asian","4","I don't know","none",12.64165
"231",1976,"cooking",2,"Victoria","male",20,5,507952,"ungrammatical","FALSE",3,"eng","","26","Asian","4","I don't know","none",12.64165
"232",4475,"coffee",3,"Brianna","male",22,0,512430,"probability","0.97",3,"eng","","26","Asian","4","I don't know","none",12.64165
"233",4475,"coffee",3,"Brianna","male",22,0,512430,"ungrammatical",NA,3,"eng","","26","Asian","4","I don't know","none",12.64165
"234",7847,"coffee",3,"Christian","male",23,1,520278,"explanation","He took sleeping pills",3,"eng","","26","Asian","4","I don't know","none",12.64165
"235",2654,"coffee",3,"Christian","male",24,2,522934,"probability","0.96",3,"eng","","26","Asian","4","I don't know","none",12.64165
"236",2654,"coffee",3,"Christian","male",24,2,522934,"ungrammatical",NA,3,"eng","","26","Asian","4","I don't know","none",12.64165
"237",2310,"coffee",3,"Kelly","male",25,3,525246,"probability","0.97",3,"eng","","26","Asian","4","I don't know","none",12.64165
"238",2310,"coffee",3,"Kelly","male",25,3,525246,"ungrammatical","FALSE",3,"eng","","26","Asian","4","I don't know","none",12.64165
"239",1225,"coffee",3,"Kristen","male",26,4,526472,"probability","0.97",3,"eng","","26","Asian","4","I don't know","none",12.64165
"240",1225,"coffee",3,"Kristen","male",26,4,526472,"ungrammatical","FALSE",3,"eng","","26","Asian","4","I don't know","none",12.64165
"241",1661,"coffee",3,"Marissa","male",27,5,528134,"probability","0.96",3,"eng","","26","Asian","4","I don't know","none",12.64165
"242",1661,"coffee",3,"Marissa","male",27,5,528134,"ungrammatical","FALSE",3,"eng","","26","Asian","4","I don't know","none",12.64165
"243",8150,"insomnia",4,"Destiny","male",29,0,536286,"probability","0.95",3,"eng","","26","Asian","4","I don't know","none",12.64165
"244",8150,"insomnia",4,"Destiny","male",29,0,536286,"ungrammatical",NA,3,"eng","","26","Asian","4","I don't know","none",12.64165
"245",14351,"insomnia",4,"Jose","male",30,1,550638,"explanation","Jose also took sleeping pills",3,"eng","","26","Asian","4","I don't know","none",12.64165
"246",2845,"insomnia",4,"Jose","male",31,2,553486,"probability","0.95",3,"eng","","26","Asian","4","I don't know","none",12.64165
"247",2845,"insomnia",4,"Jose","male",31,2,553486,"ungrammatical",NA,3,"eng","","26","Asian","4","I don't know","none",12.64165
"248",1430,"insomnia",4,"Brittany","male",32,3,554918,"probability","0.93",3,"eng","","26","Asian","4","I don't know","none",12.64165
"249",1430,"insomnia",4,"Brittany","male",32,3,554918,"ungrammatical","FALSE",3,"eng","","26","Asian","4","I don't know","none",12.64165
"250",1582,"insomnia",4,"Kenneth","male",33,4,556502,"probability","0.97",3,"eng","","26","Asian","4","I don't know","none",12.64165
"251",1582,"insomnia",4,"Kenneth","male",33,4,556502,"ungrammatical","FALSE",3,"eng","","26","Asian","4","I don't know","none",12.64165
"252",1350,"insomnia",4,"Paul","male",34,5,557854,"probability","0.97",3,"eng","","26","Asian","4","I don't know","none",12.64165
"253",1350,"insomnia",4,"Paul","male",34,5,557854,"ungrammatical","FALSE",3,"eng","","26","Asian","4","I don't know","none",12.64165
"254",5926,"Japan",5,"Christopher","male",36,0,563782,"probability","0.96",3,"eng","","26","Asian","4","I don't know","none",12.64165
"255",5926,"Japan",5,"Christopher","male",36,0,563782,"ungrammatical",NA,3,"eng","","26","Asian","4","I don't know","none",12.64165
"256",35625,"Japan",5,"Abigail","male",37,1,599408,"explanation","She is from japan and she is in US for a business trip",3,"eng","","26","Asian","4","I don't know","none",12.64165
"257",3308,"Japan",5,"Abigail","male",38,2,602726,"probability","0.95",3,"eng","","26","Asian","4","I don't know","none",12.64165
"258",3308,"Japan",5,"Abigail","male",38,2,602726,"ungrammatical",NA,3,"eng","","26","Asian","4","I don't know","none",12.64165
"259",3509,"Japan",5,"Heather","male",39,3,606238,"probability","0.96",3,"eng","","26","Asian","4","I don't know","none",12.64165
"260",3509,"Japan",5,"Heather","male",39,3,606238,"ungrammatical","FALSE",3,"eng","","26","Asian","4","I don't know","none",12.64165
"261",1342,"Japan",5,"Katie","male",40,4,607582,"probability","0.96",3,"eng","","26","Asian","4","I don't know","none",12.64165
"262",1342,"Japan",5,"Katie","male",40,4,607582,"ungrammatical","FALSE",3,"eng","","26","Asian","4","I don't know","none",12.64165
"263",2337,"Japan",5,"Ethan","male",41,5,609921,"probability","0.96",3,"eng","","26","Asian","4","I don't know","none",12.64165
"264",2337,"Japan",5,"Ethan","male",41,5,609921,"ungrammatical","FALSE",3,"eng","","26","Asian","4","I don't know","none",12.64165
"265",7656,"reading",6,"Kyle","male",43,0,617582,"probability","0.97",3,"eng","","26","Asian","4","I don't know","none",12.64165
"266",7656,"reading",6,"Kyle","male",43,0,617582,"ungrammatical",NA,3,"eng","","26","Asian","4","I don't know","none",12.64165
"267",14158,"reading",6,"Morgan","male",44,1,631741,"explanation","She already knew all the words",3,"eng","","26","Asian","4","I don't know","none",12.64165
"268",1958,"reading",6,"Morgan","male",45,2,633701,"probability","0.95",3,"eng","","26","Asian","4","I don't know","none",12.64165
"269",1958,"reading",6,"Morgan","male",45,2,633701,"ungrammatical",NA,3,"eng","","26","Asian","4","I don't know","none",12.64165
"270",3230,"reading",6,"Travis","male",46,3,636933,"probability","0.94",3,"eng","","26","Asian","4","I don't know","none",12.64165
"271",3230,"reading",6,"Travis","male",46,3,636933,"ungrammatical","FALSE",3,"eng","","26","Asian","4","I don't know","none",12.64165
"272",1406,"reading",6,"Dylan","male",47,4,638341,"probability","0.95",3,"eng","","26","Asian","4","I don't know","none",12.64165
"273",1406,"reading",6,"Dylan","male",47,4,638341,"ungrammatical","FALSE",3,"eng","","26","Asian","4","I don't know","none",12.64165
"274",1158,"reading",6,"Lindsey","male",48,5,639501,"probability","0.96",3,"eng","","26","Asian","4","I don't know","none",12.64165
"275",1158,"reading",6,"Lindsey","male",48,5,639501,"ungrammatical","FALSE",3,"eng","","26","Asian","4","I don't know","none",12.64165
"276",3982,"fitness",7,"Jeff","male",50,0,643485,"probability","0.97",3,"eng","","26","Asian","4","I don't know","none",12.64165
"277",3982,"fitness",7,"Jeff","male",50,0,643485,"ungrammatical",NA,3,"eng","","26","Asian","4","I don't know","none",12.64165
"278",26799,"fitness",7,"Evan","male",51,1,670286,"explanation","He ate a lot of food",3,"eng","","26","Asian","4","I don't know","none",12.64165
"279",23613,"fitness",7,"Evan","male",52,2,693909,"probability","0.95",3,"eng","","26","Asian","4","I don't know","none",12.64165
"280",23613,"fitness",7,"Evan","male",52,2,693909,"ungrammatical",NA,3,"eng","","26","Asian","4","I don't know","none",12.64165
"281",6988,"fitness",7,"Patrick","male",53,3,700901,"probability","0.5",3,"eng","","26","Asian","4","I don't know","none",12.64165
"282",6988,"fitness",7,"Patrick","male",53,3,700901,"ungrammatical","FALSE",3,"eng","","26","Asian","4","I don't know","none",12.64165
"283",1722,"fitness",7,"Erica","male",54,4,702626,"probability","0.46",3,"eng","","26","Asian","4","I don't know","none",12.64165
"284",1722,"fitness",7,"Erica","male",54,4,702626,"ungrammatical","FALSE",3,"eng","","26","Asian","4","I don't know","none",12.64165
"285",4097,"fitness",7,"Rick","male",55,5,706727,"probability","0.5",3,"eng","","26","Asian","4","I don't know","none",12.64165
"286",4097,"fitness",7,"Rick","male",55,5,706727,"ungrammatical","FALSE",3,"eng","","26","Asian","4","I don't know","none",12.64165
"287",15403,"guitar",8,"Ashley","male",57,0,722133,"probability","0.97",3,"eng","","26","Asian","4","I don't know","none",12.64165
"288",15403,"guitar",8,"Ashley","male",57,0,722133,"ungrammatical",NA,3,"eng","","26","Asian","4","I don't know","none",12.64165
"289",12911,"guitar",8,"Crystal","male",58,1,735045,"explanation","She doesn't know music theory",3,"eng","","26","Asian","4","I don't know","none",12.64165
"290",2077,"guitar",8,"Crystal","male",59,2,737125,"probability","0.97",3,"eng","","26","Asian","4","I don't know","none",12.64165
"291",2077,"guitar",8,"Crystal","male",59,2,737125,"ungrammatical",NA,3,"eng","","26","Asian","4","I don't know","none",12.64165
"292",2470,"guitar",8,"Kayla","male",60,3,739597,"probability","0.97",3,"eng","","26","Asian","4","I don't know","none",12.64165
"293",2470,"guitar",8,"Kayla","male",60,3,739597,"ungrammatical","FALSE",3,"eng","","26","Asian","4","I don't know","none",12.64165
"294",1702,"guitar",8,"Savannah","male",61,4,741301,"probability","0.95",3,"eng","","26","Asian","4","I don't know","none",12.64165
"295",1702,"guitar",8,"Savannah","male",61,4,741301,"ungrammatical","FALSE",3,"eng","","26","Asian","4","I don't know","none",12.64165
"296",2054,"guitar",8,"John","male",62,5,743357,"probability","0.93",3,"eng","","26","Asian","4","I don't know","none",12.64165
"297",2054,"guitar",8,"John","male",62,5,743357,"ungrammatical","FALSE",3,"eng","","26","Asian","4","I don't know","none",12.64165
"298",17946,"painting",0,"Brittany","male",1,0,21921,"probability","0.73",4,"eng","","29","Black","4","Reading Comprehension","N/A",14.6437833333333
"299",17946,"painting",0,"Brittany","male",1,0,21921,"ungrammatical",NA,4,"eng","","29","Black","4","Reading Comprehension","N/A",14.6437833333333
"300",57506,"painting",0,"Justin","male",2,1,79436,"explanation","He did not do any painting during the class.",4,"eng","","29","Black","4","Reading Comprehension","N/A",14.6437833333333
"301",9767,"painting",0,"Justin","male",3,2,89225,"probability","0.36",4,"eng","","29","Black","4","Reading Comprehension","N/A",14.6437833333333
"302",9767,"painting",0,"Justin","male",3,2,89225,"ungrammatical",NA,4,"eng","","29","Black","4","Reading Comprehension","N/A",14.6437833333333
"303",40397,"painting",0,"Jeremy","male",4,3,129635,"probability","0.35",4,"eng","","29","Black","4","Reading Comprehension","N/A",14.6437833333333
"304",40397,"painting",0,"Jeremy","male",4,3,129635,"ungrammatical","FALSE",4,"eng","","29","Black","4","Reading Comprehension","N/A",14.6437833333333
"305",21988,"painting",0,"Christopher","male",5,4,151631,"probability","0.51",4,"eng","","29","Black","4","Reading Comprehension","N/A",14.6437833333333
"306",21988,"painting",0,"Christopher","male",5,4,151631,"ungrammatical","TRUE",4,"eng","","29","Black","4","Reading Comprehension","N/A",14.6437833333333
"307",8939,"painting",0,"Kim","male",6,5,160578,"probability","0.26",4,"eng","","29","Black","4","Reading Comprehension","N/A",14.6437833333333
"308",8939,"painting",0,"Kim","male",6,5,160578,"ungrammatical","FALSE",4,"eng","","29","Black","4","Reading Comprehension","N/A",14.6437833333333
"309",5205,"fitness",1,"Kevin","male",8,0,165794,"probability","0.77",4,"eng","","29","Black","4","Reading Comprehension","N/A",14.6437833333333
"310",5205,"fitness",1,"Kevin","male",8,0,165794,"ungrammatical",NA,4,"eng","","29","Black","4","Reading Comprehension","N/A",14.6437833333333
"311",46720,"fitness",1,"Kristen","male",9,1,212516,"explanation","her nutrition is poor",4,"eng","","29","Black","4","Reading Comprehension","N/A",14.6437833333333
"312",16444,"fitness",1,"Kristen","male",10,2,228967,"probability","0.62",4,"eng","","29","Black","4","Reading Comprehension","N/A",14.6437833333333
"313",16444,"fitness",1,"Kristen","male",10,2,228967,"ungrammatical",NA,4,"eng","","29","Black","4","Reading Comprehension","N/A",14.6437833333333
"314",11065,"fitness",1,"Natalie","male",11,3,240038,"probability","0.76",4,"eng","","29","Black","4","Reading Comprehension","N/A",14.6437833333333
"315",11065,"fitness",1,"Natalie","male",11,3,240038,"ungrammatical","FALSE",4,"eng","","29","Black","4","Reading Comprehension","N/A",14.6437833333333
"316",18346,"fitness",1,"Madison","male",12,4,258391,"probability","0.78",4,"eng","","29","Black","4","Reading Comprehension","N/A",14.6437833333333
"317",18346,"fitness",1,"Madison","male",12,4,258391,"ungrammatical","TRUE",4,"eng","","29","Black","4","Reading Comprehension","N/A",14.6437833333333
"318",7041,"fitness",1,"Kyle","male",13,5,265437,"probability","0.74",4,"eng","","29","Black","4","Reading Comprehension","N/A",14.6437833333333
"319",7041,"fitness",1,"Kyle","male",13,5,265437,"ungrammatical","TRUE",4,"eng","","29","Black","4","Reading Comprehension","N/A",14.6437833333333
"320",6445,"reading",2,"Heather","male",15,0,271890,"probability","0.72",4,"eng","","29","Black","4","Reading Comprehension","N/A",14.6437833333333
"321",6445,"reading",2,"Heather","male",15,0,271890,"ungrammatical",NA,4,"eng","","29","Black","4","Reading Comprehension","N/A",14.6437833333333
"322",21665,"reading",2,"Michelle","male",16,1,293558,"explanation","she drank some coffee",4,"eng","","29","Black","4","Reading Comprehension","N/A",14.6437833333333
"323",6506,"reading",2,"Michelle","male",17,2,300072,"probability","0.74",4,"eng","","29","Black","4","Reading Comprehension","N/A",14.6437833333333
"324",6506,"reading",2,"Michelle","male",17,2,300072,"ungrammatical",NA,4,"eng","","29","Black","4","Reading Comprehension","N/A",14.6437833333333
"325",27783,"reading",2,"Charles","male",18,3,327862,"probability","0.75",4,"eng","","29","Black","4","Reading Comprehension","N/A",14.6437833333333
"326",27783,"reading",2,"Charles","male",18,3,327862,"ungrammatical","FALSE",4,"eng","","29","Black","4","Reading Comprehension","N/A",14.6437833333333
"327",20086,"reading",2,"Samuel","male",19,4,347956,"probability","0.78",4,"eng","","29","Black","4","Reading Comprehension","N/A",14.6437833333333
"328",20086,"reading",2,"Samuel","male",19,4,347956,"ungrammatical","TRUE",4,"eng","","29","Black","4","Reading Comprehension","N/A",14.6437833333333
"329",9244,"reading",2,"Erica","male",20,5,357206,"probability","0.84",4,"eng","","29","Black","4","Reading Comprehension","N/A",14.6437833333333
"330",9244,"reading",2,"Erica","male",20,5,357206,"ungrammatical","FALSE",4,"eng","","29","Black","4","Reading Comprehension","N/A",14.6437833333333
"331",5181,"insomnia",3,"Katherine","male",22,0,362395,"probability","0.81",4,"eng","","29","Black","4","Reading Comprehension","N/A",14.6437833333333
"332",5181,"insomnia",3,"Katherine","male",22,0,362395,"ungrammatical",NA,4,"eng","","29","Black","4","Reading Comprehension","N/A",14.6437833333333
"333",28253,"insomnia",3,"Trevor","male",23,1,390650,"explanation","he drank some coffee",4,"eng","","29","Black","4","Reading Comprehension","N/A",14.6437833333333
"334",12142,"insomnia",3,"Trevor","male",24,2,402799,"probability","0.69",4,"eng","","29","Black","4","Reading Comprehension","N/A",14.6437833333333
"335",12142,"insomnia",3,"Trevor","male",24,2,402799,"ungrammatical",NA,4,"eng","","29","Black","4","Reading Comprehension","N/A",14.6437833333333
"336",11899,"insomnia",3,"Hannah","male",25,3,414708,"probability","0.71",4,"eng","","29","Black","4","Reading Comprehension","N/A",14.6437833333333
"337",11899,"insomnia",3,"Hannah","male",25,3,414708,"ungrammatical","FALSE",4,"eng","","29","Black","4","Reading Comprehension","N/A",14.6437833333333
"338",8234,"insomnia",3,"Devin","male",26,4,422946,"probability","0.67",4,"eng","","29","Black","4","Reading Comprehension","N/A",14.6437833333333
"339",8234,"insomnia",3,"Devin","male",26,4,422946,"ungrammatical","FALSE",4,"eng","","29","Black","4","Reading Comprehension","N/A",14.6437833333333
"340",6313,"insomnia",3,"Jacob","male",27,5,429263,"probability","0.74",4,"eng","","29","Black","4","Reading Comprehension","N/A",14.6437833333333
"341",6313,"insomnia",3,"Jacob","male",27,5,429263,"ungrammatical","FALSE",4,"eng","","29","Black","4","Reading Comprehension","N/A",14.6437833333333
"342",15369,"cooking",4,"Amber","male",29,0,444639,"probability","0.73",4,"eng","","29","Black","4","Reading Comprehension","N/A",14.6437833333333
"343",15369,"cooking",4,"Amber","male",29,0,444639,"ungrammatical",NA,4,"eng","","29","Black","4","Reading Comprehension","N/A",14.6437833333333
"344",26608,"cooking",4,"Anna","male",30,1,471249,"explanation","she did not pay attention",4,"eng","","29","Black","4","Reading Comprehension","N/A",14.6437833333333
"345",3099,"cooking",4,"Anna","male",31,2,474361,"probability","0.8",4,"eng","","29","Black","4","Reading Comprehension","N/A",14.6437833333333
"346",3099,"cooking",4,"Anna","male",31,2,474361,"ungrammatical",NA,4,"eng","","29","Black","4","Reading Comprehension","N/A",14.6437833333333
"347",11092,"cooking",4,"Greg","male",32,3,485458,"probability","0.8",4,"eng","","29","Black","4","Reading Comprehension","N/A",14.6437833333333
"348",11092,"cooking",4,"Greg","male",32,3,485458,"ungrammatical","FALSE",4,"eng","","29","Black","4","Reading Comprehension","N/A",14.6437833333333
"349",11030,"cooking",4,"Alyssa","male",33,4,496494,"probability","0.73",4,"eng","","29","Black","4","Reading Comprehension","N/A",14.6437833333333
"350",11030,"cooking",4,"Alyssa","male",33,4,496494,"ungrammatical","TRUE",4,"eng","","29","Black","4","Reading Comprehension","N/A",14.6437833333333
"351",16372,"cooking",4,"Aaron","male",34,5,512881,"probability","0.71",4,"eng","","29","Black","4","Reading Comprehension","N/A",14.6437833333333
"352",16372,"cooking",4,"Aaron","male",34,5,512881,"ungrammatical","FALSE",4,"eng","","29","Black","4","Reading Comprehension","N/A",14.6437833333333
"353",7114,"beach",5,"Caleb","male",36,0,520003,"probability","0.83",4,"eng","","29","Black","4","Reading Comprehension","N/A",14.6437833333333
"354",7114,"beach",5,"Caleb","male",36,0,520003,"ungrammatical",NA,4,"eng","","29","Black","4","Reading Comprehension","N/A",14.6437833333333
"355",28496,"beach",5,"Maria","male",37,1,548503,"explanation","there were no waves",4,"eng","","29","Black","4","Reading Comprehension","N/A",14.6437833333333
"356",9977,"beach",5,"Maria","male",38,2,558486,"probability","0.82",4,"eng","","29","Black","4","Reading Comprehension","N/A",14.6437833333333
"357",9977,"beach",5,"Maria","male",38,2,558486,"ungrammatical",NA,4,"eng","","29","Black","4","Reading Comprehension","N/A",14.6437833333333
"358",36967,"beach",5,"Derek","male",39,3,595458,"probability","0.84",4,"eng","","29","Black","4","Reading Comprehension","N/A",14.6437833333333
"359",36967,"beach",5,"Derek","male",39,3,595458,"ungrammatical","FALSE",4,"eng","","29","Black","4","Reading Comprehension","N/A",14.6437833333333
"360",13506,"beach",5,"Jessica","male",40,4,608969,"probability","0.77",4,"eng","","29","Black","4","Reading Comprehension","N/A",14.6437833333333
"361",13506,"beach",5,"Jessica","male",40,4,608969,"ungrammatical","TRUE",4,"eng","","29","Black","4","Reading Comprehension","N/A",14.6437833333333
"362",15833,"beach",5,"Destiny","male",41,5,624810,"probability","0.8",4,"eng","","29","Black","4","Reading Comprehension","N/A",14.6437833333333
"363",15833,"beach",5,"Destiny","male",41,5,624810,"ungrammatical","FALSE",4,"eng","","29","Black","4","Reading Comprehension","N/A",14.6437833333333
"364",5339,"coffee",6,"Ian","male",43,0,630156,"probability","0.83",4,"eng","","29","Black","4","Reading Comprehension","N/A",14.6437833333333
"365",5339,"coffee",6,"Ian","male",43,0,630156,"ungrammatical",NA,4,"eng","","29","Black","4","Reading Comprehension","N/A",14.6437833333333
"366",20469,"coffee",6,"Daniel","male",44,1,650628,"explanation","he had a heavy supper",4,"eng","","29","Black","4","Reading Comprehension","N/A",14.6437833333333
"367",11906,"coffee",6,"Daniel","male",45,2,662540,"probability","0.44",4,"eng","","29","Black","4","Reading Comprehension","N/A",14.6437833333333
"368",11906,"coffee",6,"Daniel","male",45,2,662540,"ungrammatical",NA,4,"eng","","29","Black","4","Reading Comprehension","N/A",14.6437833333333
"369",10141,"coffee",6,"Evan","male",46,3,672690,"probability","0.71",4,"eng","","29","Black","4","Reading Comprehension","N/A",14.6437833333333
"370",10141,"coffee",6,"Evan","male",46,3,672690,"ungrammatical","FALSE",4,"eng","","29","Black","4","Reading Comprehension","N/A",14.6437833333333
"371",7771,"coffee",6,"Steven","male",47,4,680466,"probability","0.66",4,"eng","","29","Black","4","Reading Comprehension","N/A",14.6437833333333
"372",7771,"coffee",6,"Steven","male",47,4,680466,"ungrammatical","FALSE",4,"eng","","29","Black","4","Reading Comprehension","N/A",14.6437833333333
"373",9671,"coffee",6,"Victoria","male",48,5,690144,"probability","0.36",4,"eng","","29","Black","4","Reading Comprehension","N/A",14.6437833333333
"374",9671,"coffee",6,"Victoria","male",48,5,690144,"ungrammatical","FALSE",4,"eng","","29","Black","4","Reading Comprehension","N/A",14.6437833333333
"375",24477,"guitar",7,"Jacqueline","male",50,0,714632,"probability","0.78",4,"eng","","29","Black","4","Reading Comprehension","N/A",14.6437833333333
"376",24477,"guitar",7,"Jacqueline","male",50,0,714632,"ungrammatical",NA,4,"eng","","29","Black","4","Reading Comprehension","N/A",14.6437833333333
"377",29353,"guitar",7,"Joshua","male",51,1,743987,"explanation","he used a pick",4,"eng","","29","Black","4","Reading Comprehension","N/A",14.6437833333333
"378",4110,"guitar",7,"Joshua","male",52,2,748104,"probability","0.82",4,"eng","","29","Black","4","Reading Comprehension","N/A",14.6437833333333
"379",4110,"guitar",7,"Joshua","male",52,2,748104,"ungrammatical",NA,4,"eng","","29","Black","4","Reading Comprehension","N/A",14.6437833333333
"380",9327,"guitar",7,"Megan","male",53,3,757436,"probability","0.78",4,"eng","","29","Black","4","Reading Comprehension","N/A",14.6437833333333
"381",9327,"guitar",7,"Megan","male",53,3,757436,"ungrammatical","FALSE",4,"eng","","29","Black","4","Reading Comprehension","N/A",14.6437833333333
"382",4263,"guitar",7,"Joseph","male",54,4,761704,"probability","0.77",4,"eng","","29","Black","4","Reading Comprehension","N/A",14.6437833333333
"383",4263,"guitar",7,"Joseph","male",54,4,761704,"ungrammatical","FALSE",4,"eng","","29","Black","4","Reading Comprehension","N/A",14.6437833333333
"384",5765,"guitar",7,"Cassandra","male",55,5,767474,"probability","0.79",4,"eng","","29","Black","4","Reading Comprehension","N/A",14.6437833333333
"385",5765,"guitar",7,"Cassandra","male",55,5,767474,"ungrammatical","FALSE",4,"eng","","29","Black","4","Reading Comprehension","N/A",14.6437833333333
"386",6531,"Japan",8,"Nathan","male",57,0,774011,"probability","0.85",4,"eng","","29","Black","4","Reading Comprehension","N/A",14.6437833333333
"387",6531,"Japan",8,"Nathan","male",57,0,774011,"ungrammatical",NA,4,"eng","","29","Black","4","Reading Comprehension","N/A",14.6437833333333
"388",25547,"Japan",8,"Stephanie","male",58,1,799561,"explanation","she is japanese",4,"eng","","29","Black","4","Reading Comprehension","N/A",14.6437833333333
"389",4007,"Japan",8,"Stephanie","male",59,2,803574,"probability","0.74",4,"eng","","29","Black","4","Reading Comprehension","N/A",14.6437833333333
"390",4007,"Japan",8,"Stephanie","male",59,2,803574,"ungrammatical",NA,4,"eng","","29","Black","4","Reading Comprehension","N/A",14.6437833333333
"391",6348,"Japan",8,"Ethan","male",60,3,809926,"probability","0.86",4,"eng","","29","Black","4","Reading Comprehension","N/A",14.6437833333333
"392",6348,"Japan",8,"Ethan","male",60,3,809926,"ungrammatical","FALSE",4,"eng","","29","Black","4","Reading Comprehension","N/A",14.6437833333333
"393",8023,"Japan",8,"Robert","male",61,4,817954,"probability","0.86",4,"eng","","29","Black","4","Reading Comprehension","N/A",14.6437833333333
"394",8023,"Japan",8,"Robert","male",61,4,817954,"ungrammatical","FALSE",4,"eng","","29","Black","4","Reading Comprehension","N/A",14.6437833333333
"395",14347,"Japan",8,"Dylan","male",62,5,832306,"probability","0.82",4,"eng","","29","Black","4","Reading Comprehension","N/A",14.6437833333333
"396",14347,"Japan",8,"Dylan","male",62,5,832306,"ungrammatical","FALSE",4,"eng","","29","Black","4","Reading Comprehension","N/A",14.6437833333333
"397",22469,"painting",0,"Elizabeth","female",1,0,217813,"probability","0.75",5,"eng+other","spanish, italian ","30","Caucasian","4","I have no idea. correlation","n/a",19.3727333333333
"398",22469,"painting",0,"Elizabeth","female",1,0,217813,"ungrammatical",NA,5,"eng+other","spanish, italian ","30","Caucasian","4","I have no idea. correlation","n/a",19.3727333333333
"399",48656,"painting",0,"Shannon","female",2,1,266477,"explanation","she tried painting with the other hand",5,"eng+other","spanish, italian ","30","Caucasian","4","I have no idea. correlation","n/a",19.3727333333333
"400",4484,"painting",0,"Shannon","female",3,2,270981,"probability","0.86",5,"eng+other","spanish, italian ","30","Caucasian","4","I have no idea. correlation","n/a",19.3727333333333
"401",4484,"painting",0,"Shannon","female",3,2,270981,"ungrammatical",NA,5,"eng+other","spanish, italian ","30","Caucasian","4","I have no idea. correlation","n/a",19.3727333333333
"402",24443,"painting",0,"Miranda","female",4,3,295436,"probability","0.83",5,"eng+other","spanish, italian ","30","Caucasian","4","I have no idea. correlation","n/a",19.3727333333333
"403",24443,"painting",0,"Miranda","female",4,3,295436,"ungrammatical","FALSE",5,"eng+other","spanish, italian ","30","Caucasian","4","I have no idea. correlation","n/a",19.3727333333333
"404",7905,"painting",0,"Kelly","female",5,4,303353,"probability","0.86",5,"eng+other","spanish, italian ","30","Caucasian","4","I have no idea. correlation","n/a",19.3727333333333
"405",7905,"painting",0,"Kelly","female",5,4,303353,"ungrammatical","FALSE",5,"eng+other","spanish, italian ","30","Caucasian","4","I have no idea. correlation","n/a",19.3727333333333
"406",6755,"painting",0,"Timothy","female",6,5,310124,"probability","0.87",5,"eng+other","spanish, italian ","30","Caucasian","4","I have no idea. correlation","n/a",19.3727333333333
"407",6755,"painting",0,"Timothy","female",6,5,310124,"ungrammatical","FALSE",5,"eng+other","spanish, italian ","30","Caucasian","4","I have no idea. correlation","n/a",19.3727333333333
"408",9309,"Japan",1,"Corey","female",8,0,319449,"probability","0.95",5,"eng+other","spanish, italian ","30","Caucasian","4","I have no idea. correlation","n/a",19.3727333333333
"409",9309,"Japan",1,"Corey","female",8,0,319449,"ungrammatical",NA,5,"eng+other","spanish, italian ","30","Caucasian","4","I have no idea. correlation","n/a",19.3727333333333
"410",32503,"Japan",1,"Caleb","female",9,1,351956,"explanation","he speaks Japanese at home",5,"eng+other","spanish, italian ","30","Caucasian","4","I have no idea. correlation","n/a",19.3727333333333
"411",6794,"Japan",1,"Caleb","female",10,2,358762,"probability","0.8",5,"eng+other","spanish, italian ","30","Caucasian","4","I have no idea. correlation","n/a",19.3727333333333
"412",6794,"Japan",1,"Caleb","female",10,2,358762,"ungrammatical",NA,5,"eng+other","spanish, italian ","30","Caucasian","4","I have no idea. correlation","n/a",19.3727333333333
"413",8099,"Japan",1,"Lindsey","female",11,3,366873,"probability","0.87",5,"eng+other","spanish, italian ","30","Caucasian","4","I have no idea. correlation","n/a",19.3727333333333
"414",8099,"Japan",1,"Lindsey","female",11,3,366873,"ungrammatical","FALSE",5,"eng+other","spanish, italian ","30","Caucasian","4","I have no idea. correlation","n/a",19.3727333333333
"415",10940,"Japan",1,"Juan","female",12,4,377825,"probability","0.86",5,"eng+other","spanish, italian ","30","Caucasian","4","I have no idea. correlation","n/a",19.3727333333333
"416",10940,"Japan",1,"Juan","female",12,4,377825,"ungrammatical","FALSE",5,"eng+other","spanish, italian ","30","Caucasian","4","I have no idea. correlation","n/a",19.3727333333333
"417",20883,"Japan",1,"Jenna","female",13,5,398720,"probability","0.88",5,"eng+other","spanish, italian ","30","Caucasian","4","I have no idea. correlation","n/a",19.3727333333333
"418",20883,"Japan",1,"Jenna","female",13,5,398720,"ungrammatical","FALSE",5,"eng+other","spanish, italian ","30","Caucasian","4","I have no idea. correlation","n/a",19.3727333333333
"419",8713,"insomnia",2,"Adam","female",15,0,407441,"probability","0.73",5,"eng+other","spanish, italian ","30","Caucasian","4","I have no idea. correlation","n/a",19.3727333333333
"420",8713,"insomnia",2,"Adam","female",15,0,407441,"ungrammatical",NA,5,"eng+other","spanish, italian ","30","Caucasian","4","I have no idea. correlation","n/a",19.3727333333333
"421",58613,"insomnia",2,"Austin","female",16,1,466058,"explanation","he drank redbull",5,"eng+other","spanish, italian ","30","Caucasian","4","I have no idea. correlation","n/a",19.3727333333333
"422",6616,"insomnia",2,"Austin","female",17,2,472686,"probability","0.81",5,"eng+other","spanish, italian ","30","Caucasian","4","I have no idea. correlation","n/a",19.3727333333333
"423",6616,"insomnia",2,"Austin","female",17,2,472686,"ungrammatical",NA,5,"eng+other","spanish, italian ","30","Caucasian","4","I have no idea. correlation","n/a",19.3727333333333
"424",10926,"insomnia",2,"Courtney","female",18,3,483620,"probability","0.5",5,"eng+other","spanish, italian ","30","Caucasian","4","I have no idea. correlation","n/a",19.3727333333333
"425",10926,"insomnia",2,"Courtney","female",18,3,483620,"ungrammatical","FALSE",5,"eng+other","spanish, italian ","30","Caucasian","4","I have no idea. correlation","n/a",19.3727333333333
"426",6728,"insomnia",2,"Mark","female",19,4,490360,"probability","0.5",5,"eng+other","spanish, italian ","30","Caucasian","4","I have no idea. correlation","n/a",19.3727333333333
"427",6728,"insomnia",2,"Mark","female",19,4,490360,"ungrammatical","FALSE",5,"eng+other","spanish, italian ","30","Caucasian","4","I have no idea. correlation","n/a",19.3727333333333
"428",7098,"insomnia",2,"Brittany","female",20,5,497470,"probability","0.5",5,"eng+other","spanish, italian ","30","Caucasian","4","I have no idea. correlation","n/a",19.3727333333333
"429",7098,"insomnia",2,"Brittany","female",20,5,497470,"ungrammatical","FALSE",5,"eng+other","spanish, italian ","30","Caucasian","4","I have no idea. correlation","n/a",19.3727333333333
"430",9776,"guitar",3,"Christopher","female",22,0,507258,"probability","0.88",5,"eng+other","spanish, italian ","30","Caucasian","4","I have no idea. correlation","n/a",19.3727333333333
"431",9776,"guitar",3,"Christopher","female",22,0,507258,"ungrammatical",NA,5,"eng+other","spanish, italian ","30","Caucasian","4","I have no idea. correlation","n/a",19.3727333333333
"432",43749,"guitar",3,"Travis","female",23,1,551011,"explanation","he doesn't know how to read music very well",5,"eng+other","spanish, italian ","30","Caucasian","4","I have no idea. correlation","n/a",19.3727333333333
"433",3203,"guitar",3,"Travis","female",24,2,554222,"probability","0.81",5,"eng+other","spanish, italian ","30","Caucasian","4","I have no idea. correlation","n/a",19.3727333333333
"434",3203,"guitar",3,"Travis","female",24,2,554222,"ungrammatical",NA,5,"eng+other","spanish, italian ","30","Caucasian","4","I have no idea. correlation","n/a",19.3727333333333
"435",8577,"guitar",3,"Scott","female",25,3,562807,"probability","0.66",5,"eng+other","spanish, italian ","30","Caucasian","4","I have no idea. correlation","n/a",19.3727333333333
"436",8577,"guitar",3,"Scott","female",25,3,562807,"ungrammatical","FALSE",5,"eng+other","spanish, italian ","30","Caucasian","4","I have no idea. correlation","n/a",19.3727333333333
"437",6550,"guitar",3,"Brian","female",26,4,569365,"probability","0.92",5,"eng+other","spanish, italian ","30","Caucasian","4","I have no idea. correlation","n/a",19.3727333333333
"438",6550,"guitar",3,"Brian","female",26,4,569365,"ungrammatical","FALSE",5,"eng+other","spanish, italian ","30","Caucasian","4","I have no idea. correlation","n/a",19.3727333333333
"439",5008,"guitar",3,"Connor","female",27,5,574381,"probability","0.82",5,"eng+other","spanish, italian ","30","Caucasian","4","I have no idea. correlation","n/a",19.3727333333333
"440",5008,"guitar",3,"Connor","female",27,5,574381,"ungrammatical","FALSE",5,"eng+other","spanish, italian ","30","Caucasian","4","I have no idea. correlation","n/a",19.3727333333333
"441",6549,"fitness",4,"Brooke","female",29,0,580946,"probability","0.5",5,"eng+other","spanish, italian ","30","Caucasian","4","I have no idea. correlation","n/a",19.3727333333333
"442",6549,"fitness",4,"Brooke","female",29,0,580946,"ungrammatical",NA,5,"eng+other","spanish, italian ","30","Caucasian","4","I have no idea. correlation","n/a",19.3727333333333
"443",58799,"fitness",4,"Rick","female",30,1,639749,"explanation","he was already an athlete",5,"eng+other","spanish, italian ","30","Caucasian","4","I have no idea. correlation","n/a",19.3727333333333
"444",7903,"fitness",4,"Rick","female",31,2,647664,"probability","0.35",5,"eng+other","spanish, italian ","30","Caucasian","4","I have no idea. correlation","n/a",19.3727333333333
"445",7903,"fitness",4,"Rick","female",31,2,647664,"ungrammatical",NA,5,"eng+other","spanish, italian ","30","Caucasian","4","I have no idea. correlation","n/a",19.3727333333333
"446",7264,"fitness",4,"Cassandra","female",32,3,654936,"probability","0.51",5,"eng+other","spanish, italian ","30","Caucasian","4","I have no idea. correlation","n/a",19.3727333333333
"447",7264,"fitness",4,"Cassandra","female",32,3,654936,"ungrammatical","FALSE",5,"eng+other","spanish, italian ","30","Caucasian","4","I have no idea. correlation","n/a",19.3727333333333
"448",7247,"fitness",4,"Jacqueline","female",33,4,662191,"probability","0.72",5,"eng+other","spanish, italian ","30","Caucasian","4","I have no idea. correlation","n/a",19.3727333333333
"449",7247,"fitness",4,"Jacqueline","female",33,4,662191,"ungrammatical","FALSE",5,"eng+other","spanish, italian ","30","Caucasian","4","I have no idea. correlation","n/a",19.3727333333333
"450",5638,"fitness",4,"Daniel","female",34,5,667837,"probability","0.48",5,"eng+other","spanish, italian ","30","Caucasian","4","I have no idea. correlation","n/a",19.3727333333333
"451",5638,"fitness",4,"Daniel","female",34,5,667837,"ungrammatical","FALSE",5,"eng+other","spanish, italian ","30","Caucasian","4","I have no idea. correlation","n/a",19.3727333333333
"452",5584,"coffee",5,"Kyle","female",36,0,673433,"probability","0.72",5,"eng+other","spanish, italian ","30","Caucasian","4","I have no idea. correlation","n/a",19.3727333333333
"453",5584,"coffee",5,"Kyle","female",36,0,673433,"ungrammatical",NA,5,"eng+other","spanish, italian ","30","Caucasian","4","I have no idea. correlation","n/a",19.3727333333333
"454",45110,"coffee",5,"Michelle","female",37,1,718547,"explanation","she had coffee very early in the morning",5,"eng+other","spanish, italian ","30","Caucasian","4","I have no idea. correlation","n/a",19.3727333333333
"455",29234,"coffee",5,"Michelle","female",38,2,747793,"probability","0.71",5,"eng+other","spanish, italian ","30","Caucasian","4","I have no idea. correlation","n/a",19.3727333333333
"456",29234,"coffee",5,"Michelle","female",38,2,747793,"ungrammatical",NA,5,"eng+other","spanish, italian ","30","Caucasian","4","I have no idea. correlation","n/a",19.3727333333333
"457",8745,"coffee",5,"Victoria","female",39,3,756546,"probability","0.67",5,"eng+other","spanish, italian ","30","Caucasian","4","I have no idea. correlation","n/a",19.3727333333333
"458",8745,"coffee",5,"Victoria","female",39,3,756546,"ungrammatical","FALSE",5,"eng+other","spanish, italian ","30","Caucasian","4","I have no idea. correlation","n/a",19.3727333333333
"459",8101,"coffee",5,"Emma","female",40,4,764655,"probability","0.63",5,"eng+other","spanish, italian ","30","Caucasian","4","I have no idea. correlation","n/a",19.3727333333333
"460",8101,"coffee",5,"Emma","female",40,4,764655,"ungrammatical","FALSE",5,"eng+other","spanish, italian ","30","Caucasian","4","I have no idea. correlation","n/a",19.3727333333333
"461",18092,"coffee",5,"Will","female",41,5,782755,"probability","0.73",5,"eng+other","spanish, italian ","30","Caucasian","4","I have no idea. correlation","n/a",19.3727333333333
"462",18092,"coffee",5,"Will","female",41,5,782755,"ungrammatical","FALSE",5,"eng+other","spanish, italian ","30","Caucasian","4","I have no idea. correlation","n/a",19.3727333333333
"463",13479,"reading",6,"Sarah","female",43,0,796242,"probability","0.75",5,"eng+other","spanish, italian ","30","Caucasian","4","I have no idea. correlation","n/a",19.3727333333333
"464",13479,"reading",6,"Sarah","female",43,0,796242,"ungrammatical",NA,5,"eng+other","spanish, italian ","30","Caucasian","4","I have no idea. correlation","n/a",19.3727333333333
"465",37821,"reading",6,"David","female",44,1,834067,"explanation","he took an asprin",5,"eng+other","spanish, italian ","30","Caucasian","4","I have no idea. correlation","n/a",19.3727333333333
"466",6818,"reading",6,"David","female",45,2,840893,"probability","0.72",5,"eng+other","spanish, italian ","30","Caucasian","4","I have no idea. correlation","n/a",19.3727333333333
"467",6818,"reading",6,"David","female",45,2,840893,"ungrammatical",NA,5,"eng+other","spanish, italian ","30","Caucasian","4","I have no idea. correlation","n/a",19.3727333333333
"468",6896,"reading",6,"Jacob","female",46,3,847801,"probability","0.69",5,"eng+other","spanish, italian ","30","Caucasian","4","I have no idea. correlation","n/a",19.3727333333333
"469",6896,"reading",6,"Jacob","female",46,3,847801,"ungrammatical","FALSE",5,"eng+other","spanish, italian ","30","Caucasian","4","I have no idea. correlation","n/a",19.3727333333333
"470",6047,"reading",6,"Amy","female",47,4,853852,"probability","0.69",5,"eng+other","spanish, italian ","30","Caucasian","4","I have no idea. correlation","n/a",19.3727333333333
"471",6047,"reading",6,"Amy","female",47,4,853852,"ungrammatical","FALSE",5,"eng+other","spanish, italian ","30","Caucasian","4","I have no idea. correlation","n/a",19.3727333333333
"472",7736,"reading",6,"Gabrielle","female",48,5,861596,"probability","0.74",5,"eng+other","spanish, italian ","30","Caucasian","4","I have no idea. correlation","n/a",19.3727333333333
"473",7736,"reading",6,"Gabrielle","female",48,5,861596,"ungrammatical","FALSE",5,"eng+other","spanish, italian ","30","Caucasian","4","I have no idea. correlation","n/a",19.3727333333333
"474",6457,"beach",7,"Olivia","female",50,0,868065,"probability","0.74",5,"eng+other","spanish, italian ","30","Caucasian","4","I have no idea. correlation","n/a",19.3727333333333
"475",6457,"beach",7,"Olivia","female",50,0,868065,"ungrammatical",NA,5,"eng+other","spanish, italian ","30","Caucasian","4","I have no idea. correlation","n/a",19.3727333333333
"476",33350,"beach",7,"Laura","female",51,1,901423,"explanation","there wasn't much wind",5,"eng+other","spanish, italian ","30","Caucasian","4","I have no idea. correlation","n/a",19.3727333333333
"477",2439,"beach",7,"Laura","female",52,2,903870,"probability","0.79",5,"eng+other","spanish, italian ","30","Caucasian","4","I have no idea. correlation","n/a",19.3727333333333
"478",2439,"beach",7,"Laura","female",52,2,903870,"ungrammatical",NA,5,"eng+other","spanish, italian ","30","Caucasian","4","I have no idea. correlation","n/a",19.3727333333333
"479",7635,"beach",7,"Jennifer","female",53,3,911513,"probability","0.75",5,"eng+other","spanish, italian ","30","Caucasian","4","I have no idea. correlation","n/a",19.3727333333333
"480",7635,"beach",7,"Jennifer","female",53,3,911513,"ungrammatical","FALSE",5,"eng+other","spanish, italian ","30","Caucasian","4","I have no idea. correlation","n/a",19.3727333333333
"481",4816,"beach",7,"Michael","female",54,4,916337,"probability","0.71",5,"eng+other","spanish, italian ","30","Caucasian","4","I have no idea. correlation","n/a",19.3727333333333
"482",4816,"beach",7,"Michael","female",54,4,916337,"ungrammatical","FALSE",5,"eng+other","spanish, italian ","30","Caucasian","4","I have no idea. correlation","n/a",19.3727333333333
"483",4220,"beach",7,"Melissa","female",55,5,920561,"probability","0.76",5,"eng+other","spanish, italian ","30","Caucasian","4","I have no idea. correlation","n/a",19.3727333333333
"484",4220,"beach",7,"Melissa","female",55,5,920561,"ungrammatical","FALSE",5,"eng+other","spanish, italian ","30","Caucasian","4","I have no idea. correlation","n/a",19.3727333333333
"485",7529,"cooking",8,"Allison","female",57,0,928098,"probability","0.64",5,"eng+other","spanish, italian ","30","Caucasian","4","I have no idea. correlation","n/a",19.3727333333333
"486",7529,"cooking",8,"Allison","female",57,0,928098,"ungrammatical",NA,5,"eng+other","spanish, italian ","30","Caucasian","4","I have no idea. correlation","n/a",19.3727333333333
"487",28516,"cooking",8,"Devin","female",58,1,956618,"explanation","he took friends with him",5,"eng+other","spanish, italian ","30","Caucasian","4","I have no idea. correlation","n/a",19.3727333333333
"488",3603,"cooking",8,"Devin","female",59,2,960225,"probability","0.62",5,"eng+other","spanish, italian ","30","Caucasian","4","I have no idea. correlation","n/a",19.3727333333333
"489",3603,"cooking",8,"Devin","female",59,2,960225,"ungrammatical",NA,5,"eng+other","spanish, italian ","30","Caucasian","4","I have no idea. correlation","n/a",19.3727333333333
"490",8114,"cooking",8,"Samantha","female",60,3,968347,"probability","0.7",5,"eng+other","spanish, italian ","30","Caucasian","4","I have no idea. correlation","n/a",19.3727333333333
"491",8114,"cooking",8,"Samantha","female",60,3,968347,"ungrammatical","FALSE",5,"eng+other","spanish, italian ","30","Caucasian","4","I have no idea. correlation","n/a",19.3727333333333
"492",5011,"cooking",8,"Dustin","female",61,4,973370,"probability","0.71",5,"eng+other","spanish, italian ","30","Caucasian","4","I have no idea. correlation","n/a",19.3727333333333
"493",5011,"cooking",8,"Dustin","female",61,4,973370,"ungrammatical","FALSE",5,"eng+other","spanish, italian ","30","Caucasian","4","I have no idea. correlation","n/a",19.3727333333333
"494",12210,"cooking",8,"Angela","female",62,5,985592,"probability","0.71",5,"eng+other","spanish, italian ","30","Caucasian","4","I have no idea. correlation","n/a",19.3727333333333
"495",12210,"cooking",8,"Angela","female",62,5,985592,"ungrammatical","FALSE",5,"eng+other","spanish, italian ","30","Caucasian","4","I have no idea. correlation","n/a",19.3727333333333
"496",25267,"Japan",0,"Adam","female",1,0,48231,"probability","0.98",6,"eng","","32","caucasian","4","no idea","",9.40098333333333
"497",25267,"Japan",0,"Adam","female",1,0,48231,"ungrammatical",NA,6,"eng","","32","caucasian","4","no idea","",9.40098333333333
"498",14872,"Japan",0,"Julia","female",2,1,63113,"explanation","she slept on the plane",6,"eng","","32","caucasian","4","no idea","",9.40098333333333
"499",3291,"Japan",0,"Julia","female",3,2,66468,"probability","0.97",6,"eng","","32","caucasian","4","no idea","",9.40098333333333
"500",3291,"Japan",0,"Julia","female",3,2,66468,"ungrammatical",NA,6,"eng","","32","caucasian","4","no idea","",9.40098333333333
"501",27446,"Japan",0,"Gabrielle","female",4,3,93932,"probability","0.97",6,"eng","","32","caucasian","4","no idea","",9.40098333333333
"502",27446,"Japan",0,"Gabrielle","female",4,3,93932,"ungrammatical","FALSE",6,"eng","","32","caucasian","4","no idea","",9.40098333333333
"503",12897,"Japan",0,"Joshua","female",5,4,106848,"probability","0.93",6,"eng","","32","caucasian","4","no idea","",9.40098333333333
"504",12897,"Japan",0,"Joshua","female",5,4,106848,"ungrammatical","FALSE",6,"eng","","32","caucasian","4","no idea","",9.40098333333333
"505",5469,"Japan",0,"Jared","female",6,5,112334,"probability","0.94",6,"eng","","32","caucasian","4","no idea","",9.40098333333333
"506",5469,"Japan",0,"Jared","female",6,5,112334,"ungrammatical","FALSE",6,"eng","","32","caucasian","4","no idea","",9.40098333333333
"507",11823,"coffee",1,"Morgan","female",8,0,124170,"probability","0.72",6,"eng","","32","caucasian","4","no idea","",9.40098333333333
"508",11823,"coffee",1,"Morgan","female",8,0,124170,"ungrammatical",NA,6,"eng","","32","caucasian","4","no idea","",9.40098333333333
"509",14465,"coffee",1,"Vanessa","female",9,1,138639,"explanation","she has add",6,"eng","","32","caucasian","4","no idea","",9.40098333333333
"510",3104,"coffee",1,"Vanessa","female",10,2,141762,"probability","0.64",6,"eng","","32","caucasian","4","no idea","",9.40098333333333
"511",3104,"coffee",1,"Vanessa","female",10,2,141762,"ungrammatical",NA,6,"eng","","32","caucasian","4","no idea","",9.40098333333333
"512",13122,"coffee",1,"Kevin","female",11,3,154896,"probability","0.65",6,"eng","","32","caucasian","4","no idea","",9.40098333333333
"513",13122,"coffee",1,"Kevin","female",11,3,154896,"ungrammatical","FALSE",6,"eng","","32","caucasian","4","no idea","",9.40098333333333
"514",15190,"coffee",1,"Patrick","female",12,4,170098,"probability","0.65",6,"eng","","32","caucasian","4","no idea","",9.40098333333333
"515",15190,"coffee",1,"Patrick","female",12,4,170098,"ungrammatical","FALSE",6,"eng","","32","caucasian","4","no idea","",9.40098333333333
"516",8091,"coffee",1,"Mark","female",13,5,178206,"probability","0.63",6,"eng","","32","caucasian","4","no idea","",9.40098333333333
"517",8091,"coffee",1,"Mark","female",13,5,178206,"ungrammatical","FALSE",6,"eng","","32","caucasian","4","no idea","",9.40098333333333
"518",10122,"beach",2,"Kaitlyn","female",15,0,188346,"probability","0.5",6,"eng","","32","caucasian","4","no idea","",9.40098333333333
"519",10122,"beach",2,"Kaitlyn","female",15,0,188346,"ungrammatical",NA,6,"eng","","32","caucasian","4","no idea","",9.40098333333333
"520",21020,"beach",2,"Derek","female",16,1,209375,"explanation","there werent any waves",6,"eng","","32","caucasian","4","no idea","",9.40098333333333
"521",2776,"beach",2,"Derek","female",17,2,212167,"probability","0.55",6,"eng","","32","caucasian","4","no idea","",9.40098333333333
"522",2776,"beach",2,"Derek","female",17,2,212167,"ungrammatical",NA,6,"eng","","32","caucasian","4","no idea","",9.40098333333333
"523",10928,"beach",2,"Lindsey","female",18,3,223105,"probability","0.53",6,"eng","","32","caucasian","4","no idea","",9.40098333333333
"524",10928,"beach",2,"Lindsey","female",18,3,223105,"ungrammatical","FALSE",6,"eng","","32","caucasian","4","no idea","",9.40098333333333
"525",16592,"beach",2,"Ian","female",19,4,239714,"probability","0.55",6,"eng","","32","caucasian","4","no idea","",9.40098333333333
"526",16592,"beach",2,"Ian","female",19,4,239714,"ungrammatical","FALSE",6,"eng","","32","caucasian","4","no idea","",9.40098333333333
"527",9367,"beach",2,"Robert","female",20,5,249097,"probability","0.52",6,"eng","","32","caucasian","4","no idea","",9.40098333333333
"528",9367,"beach",2,"Robert","female",20,5,249097,"ungrammatical","FALSE",6,"eng","","32","caucasian","4","no idea","",9.40098333333333
"529",9172,"guitar",3,"Amanda","female",22,0,258283,"probability","0.99",6,"eng","","32","caucasian","4","no idea","",9.40098333333333
"530",9172,"guitar",3,"Amanda","female",22,0,258283,"ungrammatical",NA,6,"eng","","32","caucasian","4","no idea","",9.40098333333333
"531",16338,"guitar",3,"Andrew","female",23,1,274628,"explanation","he doesnt like composing",6,"eng","","32","caucasian","4","no idea","",9.40098333333333
"532",2545,"guitar",3,"Andrew","female",24,2,277193,"probability","1",6,"eng","","32","caucasian","4","no idea","",9.40098333333333
"533",2545,"guitar",3,"Andrew","female",24,2,277193,"ungrammatical",NA,6,"eng","","32","caucasian","4","no idea","",9.40098333333333
"534",6319,"guitar",3,"Nathan","female",25,3,283525,"probability","0.98",6,"eng","","32","caucasian","4","no idea","",9.40098333333333
"535",6319,"guitar",3,"Nathan","female",25,3,283525,"ungrammatical","FALSE",6,"eng","","32","caucasian","4","no idea","",9.40098333333333
"536",7901,"guitar",3,"Alexis","female",26,4,291442,"probability","1",6,"eng","","32","caucasian","4","no idea","",9.40098333333333
"537",7901,"guitar",3,"Alexis","female",26,4,291442,"ungrammatical","FALSE",6,"eng","","32","caucasian","4","no idea","",9.40098333333333
"538",9598,"guitar",3,"Charles","female",27,5,301050,"probability","1",6,"eng","","32","caucasian","4","no idea","",9.40098333333333
"539",9598,"guitar",3,"Charles","female",27,5,301050,"ungrammatical","FALSE",6,"eng","","32","caucasian","4","no idea","",9.40098333333333
"540",10217,"insomnia",4,"Trevor","female",29,0,311280,"probability","0.69",6,"eng","","32","caucasian","4","no idea","",9.40098333333333
"541",10217,"insomnia",4,"Trevor","female",29,0,311280,"ungrammatical",NA,6,"eng","","32","caucasian","4","no idea","",9.40098333333333
"542",8690,"insomnia",4,"Devin","female",30,1,319977,"explanation","he was focused",6,"eng","","32","caucasian","4","no idea","",9.40098333333333
"543",11538,"insomnia",4,"Devin","female",31,2,331536,"probability","0.75",6,"eng","","32","caucasian","4","no idea","",9.40098333333333
"544",11538,"insomnia",4,"Devin","female",31,2,331536,"ungrammatical",NA,6,"eng","","32","caucasian","4","no idea","",9.40098333333333
"545",7190,"insomnia",4,"Chelsea","female",32,3,338740,"probability","0.69",6,"eng","","32","caucasian","4","no idea","",9.40098333333333
"546",7190,"insomnia",4,"Chelsea","female",32,3,338740,"ungrammatical","FALSE",6,"eng","","32","caucasian","4","no idea","",9.40098333333333
"547",14049,"insomnia",4,"Benjamin","female",33,4,352799,"probability","0.64",6,"eng","","32","caucasian","4","no idea","",9.40098333333333
"548",14049,"insomnia",4,"Benjamin","female",33,4,352799,"ungrammatical","FALSE",6,"eng","","32","caucasian","4","no idea","",9.40098333333333
"549",5541,"insomnia",4,"Victoria","female",34,5,358356,"probability","0.69",6,"eng","","32","caucasian","4","no idea","",9.40098333333333
"550",5541,"insomnia",4,"Victoria","female",34,5,358356,"ungrammatical","FALSE",6,"eng","","32","caucasian","4","no idea","",9.40098333333333
"551",13357,"painting",5,"Alexander","female",36,0,371728,"probability","0.51",6,"eng","","32","caucasian","4","no idea","",9.40098333333333
"552",13357,"painting",5,"Alexander","female",36,0,371728,"ungrammatical",NA,6,"eng","","32","caucasian","4","no idea","",9.40098333333333
"553",11218,"painting",5,"Brooke","female",37,1,382950,"explanation","he didnt take it seriously",6,"eng","","32","caucasian","4","no idea","",9.40098333333333
"554",4936,"painting",5,"Brooke","female",38,2,387908,"probability","0.67",6,"eng","","32","caucasian","4","no idea","",9.40098333333333
"555",4936,"painting",5,"Brooke","female",38,2,387908,"ungrammatical",NA,6,"eng","","32","caucasian","4","no idea","",9.40098333333333
"556",7470,"painting",5,"Jeremy","female",39,3,395396,"probability","0.66",6,"eng","","32","caucasian","4","no idea","",9.40098333333333
"557",7470,"painting",5,"Jeremy","female",39,3,395396,"ungrammatical","FALSE",6,"eng","","32","caucasian","4","no idea","",9.40098333333333
"558",5542,"painting",5,"Nicholas","female",40,4,400959,"probability","0.66",6,"eng","","32","caucasian","4","no idea","",9.40098333333333
"559",5542,"painting",5,"Nicholas","female",40,4,400959,"ungrammatical","FALSE",6,"eng","","32","caucasian","4","no idea","",9.40098333333333
"560",15154,"painting",5,"Timothy","female",41,5,416131,"probability","0.67",6,"eng","","32","caucasian","4","no idea","",9.40098333333333
"561",15154,"painting",5,"Timothy","female",41,5,416131,"ungrammatical","FALSE",6,"eng","","32","caucasian","4","no idea","",9.40098333333333
"562",10687,"reading",6,"Savannah","female",43,0,426833,"probability","0.81",6,"eng","","32","caucasian","4","no idea","",9.40098333333333
"563",10687,"reading",6,"Savannah","female",43,0,426833,"ungrammatical",NA,6,"eng","","32","caucasian","4","no idea","",9.40098333333333
"564",7177,"reading",6,"Juan","female",44,1,434018,"explanation","he wore glasses",6,"eng","","32","caucasian","4","no idea","",9.40098333333333
"565",9553,"reading",6,"Juan","female",45,2,443592,"probability","0.82",6,"eng","","32","caucasian","4","no idea","",9.40098333333333
"566",9553,"reading",6,"Juan","female",45,2,443592,"ungrammatical",NA,6,"eng","","32","caucasian","4","no idea","",9.40098333333333
"567",3962,"reading",6,"Emily","female",46,3,447577,"probability","0.91",6,"eng","","32","caucasian","4","no idea","",9.40098333333333
"568",3962,"reading",6,"Emily","female",46,3,447577,"ungrammatical","FALSE",6,"eng","","32","caucasian","4","no idea","",9.40098333333333
"569",3041,"reading",6,"Paige","female",47,4,450629,"probability","0.84",6,"eng","","32","caucasian","4","no idea","",9.40098333333333
"570",3041,"reading",6,"Paige","female",47,4,450629,"ungrammatical","FALSE",6,"eng","","32","caucasian","4","no idea","",9.40098333333333
"571",5404,"reading",6,"Erin","female",48,5,456042,"probability","0.84",6,"eng","","32","caucasian","4","no idea","",9.40098333333333
"572",5404,"reading",6,"Erin","female",48,5,456042,"ungrammatical","FALSE",6,"eng","","32","caucasian","4","no idea","",9.40098333333333
"573",16250,"fitness",7,"Luis","female",50,0,472303,"probability","0.93",6,"eng","","32","caucasian","4","no idea","",9.40098333333333
"574",16250,"fitness",7,"Luis","female",50,0,472303,"ungrammatical",NA,6,"eng","","32","caucasian","4","no idea","",9.40098333333333
"575",17998,"fitness",7,"Danielle","female",51,1,490309,"explanation","she ate lots of twinkies",6,"eng","","32","caucasian","4","no idea","",9.40098333333333
"576",2524,"fitness",7,"Danielle","female",52,2,492851,"probability","0.91",6,"eng","","32","caucasian","4","no idea","",9.40098333333333
"577",2524,"fitness",7,"Danielle","female",52,2,492851,"ungrammatical",NA,6,"eng","","32","caucasian","4","no idea","",9.40098333333333
"578",3394,"fitness",7,"Miranda","female",53,3,496255,"probability","0.87",6,"eng","","32","caucasian","4","no idea","",9.40098333333333
"579",3394,"fitness",7,"Miranda","female",53,3,496255,"ungrammatical","FALSE",6,"eng","","32","caucasian","4","no idea","",9.40098333333333
"580",2499,"fitness",7,"Ryan","female",54,4,498775,"probability","0.88",6,"eng","","32","caucasian","4","no idea","",9.40098333333333
"581",2499,"fitness",7,"Ryan","female",54,4,498775,"ungrammatical","FALSE",6,"eng","","32","caucasian","4","no idea","",9.40098333333333
"582",2586,"fitness",7,"Courtney","female",55,5,501371,"probability","0.9",6,"eng","","32","caucasian","4","no idea","",9.40098333333333
"583",2586,"fitness",7,"Courtney","female",55,5,501371,"ungrammatical","FALSE",6,"eng","","32","caucasian","4","no idea","",9.40098333333333
"584",10708,"cooking",8,"Emma","female",57,0,512091,"probability","0.81",6,"eng","","32","caucasian","4","no idea","",9.40098333333333
"585",10708,"cooking",8,"Emma","female",57,0,512091,"ungrammatical",NA,6,"eng","","32","caucasian","4","no idea","",9.40098333333333
"586",12466,"cooking",8,"Will","female",58,1,524564,"explanation","he didnt like anyhitng they made",6,"eng","","32","caucasian","4","no idea","",9.40098333333333
"587",2587,"cooking",8,"Will","female",59,2,527168,"probability","0.87",6,"eng","","32","caucasian","4","no idea","",9.40098333333333
"588",2587,"cooking",8,"Will","female",59,2,527168,"ungrammatical",NA,6,"eng","","32","caucasian","4","no idea","",9.40098333333333
"589",4306,"cooking",8,"Travis","female",60,3,531485,"probability","0.9",6,"eng","","32","caucasian","4","no idea","",9.40098333333333
"590",4306,"cooking",8,"Travis","female",60,3,531485,"ungrammatical","FALSE",6,"eng","","32","caucasian","4","no idea","",9.40098333333333
"591",3077,"cooking",8,"Dylan","female",61,4,534571,"probability","0.9",6,"eng","","32","caucasian","4","no idea","",9.40098333333333
"592",3077,"cooking",8,"Dylan","female",61,4,534571,"ungrammatical","FALSE",6,"eng","","32","caucasian","4","no idea","",9.40098333333333
"593",2222,"cooking",8,"Andrea","female",62,5,536800,"probability","0.88",6,"eng","","32","caucasian","4","no idea","",9.40098333333333
"594",2222,"cooking",8,"Andrea","female",62,5,536800,"ungrammatical","FALSE",6,"eng","","32","caucasian","4","no idea","",9.40098333333333
"595",5558,"insomnia",0,"Jacqueline","male",1,0,65418,"probability","0.5",7,"eng","","29","caucasian","1","Cause and effect","no",7.71526666666667
"596",5558,"insomnia",0,"Jacqueline","male",1,0,65418,"ungrammatical",NA,7,"eng","","29","caucasian","1","Cause and effect","no",7.71526666666667
"597",17252,"insomnia",0,"Alexandra","male",2,1,82673,"explanation","She was tired",7,"eng","","29","caucasian","1","Cause and effect","no",7.71526666666667
"598",1667,"insomnia",0,"Alexandra","male",3,2,84349,"probability","0.67",7,"eng","","29","caucasian","1","Cause and effect","no",7.71526666666667
"599",1667,"insomnia",0,"Alexandra","male",3,2,84349,"ungrammatical",NA,7,"eng","","29","caucasian","1","Cause and effect","no",7.71526666666667
"600",1241,"insomnia",0,"Olivia","male",4,3,85596,"probability","0.45",7,"eng","","29","caucasian","1","Cause and effect","no",7.71526666666667
"601",1241,"insomnia",0,"Olivia","male",4,3,85596,"ungrammatical","FALSE",7,"eng","","29","caucasian","1","Cause and effect","no",7.71526666666667
"602",1053,"insomnia",0,"Kenneth","male",5,4,86654,"probability","0.66",7,"eng","","29","caucasian","1","Cause and effect","no",7.71526666666667
"603",1053,"insomnia",0,"Kenneth","male",5,4,86654,"ungrammatical","FALSE",7,"eng","","29","caucasian","1","Cause and effect","no",7.71526666666667
"604",1966,"insomnia",0,"Chelsea","male",6,5,88629,"probability","0.82",7,"eng","","29","caucasian","1","Cause and effect","no",7.71526666666667
"605",1966,"insomnia",0,"Chelsea","male",6,5,88629,"ungrammatical","FALSE",7,"eng","","29","caucasian","1","Cause and effect","no",7.71526666666667
"606",1281,"Japan",1,"Elizabeth","male",8,0,89917,"probability","0.59",7,"eng","","29","caucasian","1","Cause and effect","no",7.71526666666667
"607",1281,"Japan",1,"Elizabeth","male",8,0,89917,"ungrammatical",NA,7,"eng","","29","caucasian","1","Cause and effect","no",7.71526666666667
"608",8683,"Japan",1,"Paige","male",9,1,98602,"explanation","No one was talking?",7,"eng","","29","caucasian","1","Cause and effect","no",7.71526666666667
"609",159271,"Japan",1,"Paige","male",10,2,257878,"probability","0.68",7,"eng","","29","caucasian","1","Cause and effect","no",7.71526666666667
"610",159271,"Japan",1,"Paige","male",10,2,257878,"ungrammatical",NA,7,"eng","","29","caucasian","1","Cause and effect","no",7.71526666666667
"611",993,"Japan",1,"Luis","male",11,3,258875,"probability","0.5",7,"eng","","29","caucasian","1","Cause and effect","no",7.71526666666667
"612",993,"Japan",1,"Luis","male",11,3,258875,"ungrammatical","FALSE",7,"eng","","29","caucasian","1","Cause and effect","no",7.71526666666667
"613",1375,"Japan",1,"Jason","male",12,4,260253,"probability","0.33",7,"eng","","29","caucasian","1","Cause and effect","no",7.71526666666667
"614",1375,"Japan",1,"Jason","male",12,4,260253,"ungrammatical","FALSE",7,"eng","","29","caucasian","1","Cause and effect","no",7.71526666666667
"615",2076,"Japan",1,"Carlos","male",13,5,262333,"probability","0.65",7,"eng","","29","caucasian","1","Cause and effect","no",7.71526666666667
"616",2076,"Japan",1,"Carlos","male",13,5,262333,"ungrammatical","FALSE",7,"eng","","29","caucasian","1","Cause and effect","no",7.71526666666667
"617",2074,"cooking",2,"Tyler","male",15,0,264413,"probability","0.75",7,"eng","","29","caucasian","1","Cause and effect","no",7.71526666666667
"618",2074,"cooking",2,"Tyler","male",15,0,264413,"ungrammatical",NA,7,"eng","","29","caucasian","1","Cause and effect","no",7.71526666666667
"619",27457,"cooking",2,"Andrew","male",16,1,291873,"explanation","He wasn't paying attention",7,"eng","","29","caucasian","1","Cause and effect","no",7.71526666666667
"620",1376,"cooking",2,"Andrew","male",17,2,293252,"probability","0.69",7,"eng","","29","caucasian","1","Cause and effect","no",7.71526666666667
"621",1376,"cooking",2,"Andrew","male",17,2,293252,"ungrammatical",NA,7,"eng","","29","caucasian","1","Cause and effect","no",7.71526666666667
"622",6651,"cooking",2,"Cameron","male",18,3,299908,"probability","0.69",7,"eng","","29","caucasian","1","Cause and effect","no",7.71526666666667
"623",6651,"cooking",2,"Cameron","male",18,3,299908,"ungrammatical","FALSE",7,"eng","","29","caucasian","1","Cause and effect","no",7.71526666666667
"624",1763,"cooking",2,"Danielle","male",19,4,301674,"probability","0.47",7,"eng","","29","caucasian","1","Cause and effect","no",7.71526666666667
"625",1763,"cooking",2,"Danielle","male",19,4,301674,"ungrammatical","FALSE",7,"eng","","29","caucasian","1","Cause and effect","no",7.71526666666667
"626",979,"cooking",2,"Allison","male",20,5,302660,"probability","0.75",7,"eng","","29","caucasian","1","Cause and effect","no",7.71526666666667
"627",979,"cooking",2,"Allison","male",20,5,302660,"ungrammatical","FALSE",7,"eng","","29","caucasian","1","Cause and effect","no",7.71526666666667
"628",2659,"beach",3,"Kayla","male",22,0,305324,"probability","0.84",7,"eng","","29","caucasian","1","Cause and effect","no",7.71526666666667
"629",2659,"beach",3,"Kayla","male",22,0,305324,"ungrammatical",NA,7,"eng","","29","caucasian","1","Cause and effect","no",7.71526666666667
"630",5919,"beach",3,"Christian","male",23,1,311244,"explanation","Not looking the right way",7,"eng","","29","caucasian","1","Cause and effect","no",7.71526666666667
"631",2318,"beach",3,"Christian","male",24,2,313568,"probability","0.73",7,"eng","","29","caucasian","1","Cause and effect","no",7.71526666666667
"632",2318,"beach",3,"Christian","male",24,2,313568,"ungrammatical",NA,7,"eng","","29","caucasian","1","Cause and effect","no",7.71526666666667
"633",1909,"beach",3,"Jeff","male",25,3,315482,"probability","0.58",7,"eng","","29","caucasian","1","Cause and effect","no",7.71526666666667
"634",1909,"beach",3,"Jeff","male",25,3,315482,"ungrammatical","FALSE",7,"eng","","29","caucasian","1","Cause and effect","no",7.71526666666667
"635",2893,"beach",3,"Jared","male",26,4,318378,"probability","0.7",7,"eng","","29","caucasian","1","Cause and effect","no",7.71526666666667
"636",2893,"beach",3,"Jared","male",26,4,318378,"ungrammatical","FALSE",7,"eng","","29","caucasian","1","Cause and effect","no",7.71526666666667
"637",5108,"beach",3,"John","male",27,5,323492,"probability","0.88",7,"eng","","29","caucasian","1","Cause and effect","no",7.71526666666667
"638",5108,"beach",3,"John","male",27,5,323492,"ungrammatical","FALSE",7,"eng","","29","caucasian","1","Cause and effect","no",7.71526666666667
"639",2273,"painting",4,"Jasmine","male",29,0,325772,"probability","0.87",7,"eng","","29","caucasian","1","Cause and effect","no",7.71526666666667
"640",2273,"painting",4,"Jasmine","male",29,0,325772,"ungrammatical",NA,7,"eng","","29","caucasian","1","Cause and effect","no",7.71526666666667
"641",44759,"painting",4,"Ashley","male",30,1,370533,"explanation","She wasn't concentrating",7,"eng","","29","caucasian","1","Cause and effect","no",7.71526666666667
"642",1167,"painting",4,"Ashley","male",31,2,371704,"probability","0.74",7,"eng","","29","caucasian","1","Cause and effect","no",7.71526666666667
"643",1167,"painting",4,"Ashley","male",31,2,371704,"ungrammatical",NA,7,"eng","","29","caucasian","1","Cause and effect","no",7.71526666666667
"644",1181,"painting",4,"Juan","male",32,3,372888,"probability","0.61",7,"eng","","29","caucasian","1","Cause and effect","no",7.71526666666667
"645",1181,"painting",4,"Juan","male",32,3,372888,"ungrammatical","FALSE",7,"eng","","29","caucasian","1","Cause and effect","no",7.71526666666667
"646",1128,"painting",4,"Joshua","male",33,4,374020,"probability","0.77",7,"eng","","29","caucasian","1","Cause and effect","no",7.71526666666667
"647",1128,"painting",4,"Joshua","male",33,4,374020,"ungrammatical","FALSE",7,"eng","","29","caucasian","1","Cause and effect","no",7.71526666666667
"648",1005,"painting",4,"Brandon","male",34,5,375029,"probability","0.44",7,"eng","","29","caucasian","1","Cause and effect","no",7.71526666666667
"649",1005,"painting",4,"Brandon","male",34,5,375029,"ungrammatical","FALSE",7,"eng","","29","caucasian","1","Cause and effect","no",7.71526666666667
"650",1092,"coffee",5,"David","male",36,0,376125,"probability","0.74",7,"eng","","29","caucasian","1","Cause and effect","no",7.71526666666667
"651",1092,"coffee",5,"David","male",36,0,376125,"ungrammatical",NA,7,"eng","","29","caucasian","1","Cause and effect","no",7.71526666666667
"652",13711,"coffee",5,"Stephanie","male",37,1,389838,"explanation","Too tired from lack of sleep",7,"eng","","29","caucasian","1","Cause and effect","no",7.71526666666667
"653",1323,"coffee",5,"Stephanie","male",38,2,391165,"probability","0.82",7,"eng","","29","caucasian","1","Cause and effect","no",7.71526666666667
"654",1323,"coffee",5,"Stephanie","male",38,2,391165,"ungrammatical",NA,7,"eng","","29","caucasian","1","Cause and effect","no",7.71526666666667
"655",1240,"coffee",5,"Ian","male",39,3,392410,"probability","0.61",7,"eng","","29","caucasian","1","Cause and effect","no",7.71526666666667
"656",1240,"coffee",5,"Ian","male",39,3,392410,"ungrammatical","FALSE",7,"eng","","29","caucasian","1","Cause and effect","no",7.71526666666667
"657",1595,"coffee",5,"Michelle","male",40,4,394008,"probability","0.87",7,"eng","","29","caucasian","1","Cause and effect","no",7.71526666666667
"658",1595,"coffee",5,"Michelle","male",40,4,394008,"ungrammatical","FALSE",7,"eng","","29","caucasian","1","Cause and effect","no",7.71526666666667
"659",1482,"coffee",5,"Jeremy","male",41,5,395494,"probability","0.56",7,"eng","","29","caucasian","1","Cause and effect","no",7.71526666666667
"660",1482,"coffee",5,"Jeremy","male",41,5,395494,"ungrammatical","FALSE",7,"eng","","29","caucasian","1","Cause and effect","no",7.71526666666667
"661",1956,"reading",6,"Anna","male",43,0,397455,"probability","0.77",7,"eng","","29","caucasian","1","Cause and effect","no",7.71526666666667
"662",1956,"reading",6,"Anna","male",43,0,397455,"ungrammatical",NA,7,"eng","","29","caucasian","1","Cause and effect","no",7.71526666666667
